time,acc_x,acc_y,acc_z
0,-0.6338648529937491,-0.3640682716812006,-9.592368366894126
10,-0.6941688438415528,-0.3103483901977539,-9.781810157775878
20,-0.5933130989074706,-0.2497451606750488,-9.93294413757324
30,-0.2916436531951651,-0.19033901371611278,-10.057292401775717
40,-0.1548748833587393,-0.11626838158871972,-10.148272064861656
50,-0.2612672561645508,-0.1204582527603023,-10.05534769744873
60,-0.3743932846069335,-0.17298106994628898,-9.937732540893554
70,-0.44861353607177723,-0.2162263374328613,-9.799766670227049
80,-0.5386953735351561,-0.250194073486328,-9.662848262786865
90,-0.5883750579833983,-0.3078045509338378,-9.639205521392821
100,-0.41030630950927727,-0.3992331268310546,-9.65910732269287
110,-0.2480991470336914,-0.3410240989685057,-9.733477211761475
120,-0.2440588951995596,-0.21772269520414989,-9.84450772922933
130,-0.3504513045379892,-0.117465518951416,-9.980678533172606
140,-0.3794809266021475,-0.08200138859404259,-10.092307601055502
150,-0.2162263374328613,-0.1107318267822265,-10.154108515930174
160,-0.11043255157470702,-0.1503857917785644,-10.10053825378418
170,-0.2341828498840332,-0.1830068076645024,-9.910049584197997
180,-0.4436754586150869,-0.2225110985244623,-9.782258486065269
190,-0.5596446380615234,-0.2656067466735839,-9.77358008956909
200,-0.3794809631347656,-0.37020343170166,-9.681403325653077
210,-0.18121117468569428,-0.3681085052490234,-9.655067107391357
220,-0.3022679595947265,-0.25573066482543927,-9.706991355895996
230,-0.4605845078399404,-0.20171147160185499,-9.754126616558432
240,-0.3350385948181151,-0.2305915473937988,-9.84450831375122
250,-0.14604630126953128,-0.2147299431289546,-9.887752996715902
260,-0.1837549774169922,-0.11836334457397459,-9.829095640563963
270,-0.19437924728393552,-0.1470937644958496,-9.845555776977537
280,-0.09382281408999121,-0.2506429862976075,-9.877129311370847
290,-0.11432309273984292,-0.26051904987944285,-9.824905203136801
300,-0.3075052757263184,-0.2097919204711914,-9.747393508911133
310,-0.5246294387817382,-0.2421136246169918,-9.705046067047121
320,-0.41763855209350575,-0.35329440074311563,-9.764601833343507
330,-0.35583822174072255,-0.36855741806030273,-9.865158303070068
340,-0.4463689720153808,-0.3678092300415039,-9.83074165420532
350,-0.4522048385620116,-0.35957916183471667,-9.835230782318115
360,-0.2742857276916504,-0.369604881286621,-9.89583401184082
370,-0.11566986770629889,-0.3708019821166991,-9.91468834991455
380,-0.1429038750579581,-0.3853168114150874,-10.00970764378011
390,-0.118064069366455,-0.4013280532836913,-10.025569814300535
400,-0.09217676391601562,-0.38726211853027337,-9.965864410400387
410,-0.18824410552978518,-0.3366846084594726,-9.905410818481444
420,-0.44352585754394525,-0.3390788101196288,-9.794828629302978
430,-0.2570774032592773,-0.47719431838989246,-9.708637369537353
440,-0.04908109750058498,-0.5021837616851552,-9.715669752392172
450,-0.05461772537231446,-0.45160628814697246,-9.663746088409424
460,-0.19662384787295012,-0.4436754951477051,-9.689932669067385
470,-0.37244799575805665,-0.4224269554138183,-9.806949275207518
480,-0.31723171997070304,-0.3836707977737299,-9.8955347366333
490,-0.1657984832321294,-0.3292027100051753,-10.011054966735841
500,-0.1149216979538091,-0.2572270408630371,-10.100238978576659
510,-0.3514987312316894,-0.1720832443237304,-10.052504582977294
520,-0.6153098266601561,-0.1565209335327149,-9.887155030822752
530,-0.4092588462829589,-0.2475005966186523,-9.780463419342041
540,-0.2808697822570801,-0.2347814002990723,-9.717465988159178
550,-0.3841197288513183,-0.2457049453735351,-9.669133042144775
560,-0.40686466288911166,-0.29658173065185545,-9.677363110351564
570,-0.20425532913208008,-0.2790741310119629,-9.7315319229126
580,0.01646013641357419,-0.2091933700561523,-9.759214879608155
590,0.2103905074188485,-0.1699882813384756,-9.810539993175864
600,0.24630351405488332,-0.1328781921386718,-9.885658654785155
610,0.06808512797700242,-0.07197565087582919,-9.85183997181356
620,0.05776015158388759,-0.07975680627133708,-9.731531338390708
630,-0.05252279891967779,-0.1337760177612305,-9.59640916671753
640,-0.15816694717407231,-0.2270002083709464,-9.405770859527587
650,-0.2064998931884766,-0.2870049240112305,-9.386018695831298
660,-0.1997662010192871,-0.3465606903076171,-9.36447088088989
670,-0.2147299613952637,-0.34551322708129867,-9.445125549316403
680,-0.2817675896133295,-0.25333646316528324,-9.60703343658447
690,-0.2281973457336425,-0.20365677871704102,-9.75517466430664
700,-0.11267713389741259,-0.1762730972290039,-9.873388371276855
710,-0.055066619917284704,-0.16534951562192288,-9.924863122448324
720,-0.1649006210769526,-0.1506850304534659,-9.907654798015951
730,-0.3727472892318851,-0.1862988166809082,-9.861267725372315
740,-0.3438672317062504,-0.3187280960083007,-9.782558345794678
750,-0.2876034926925785,-0.41165304794311514,-9.661800799560543
760,-0.2491466102600097,-0.48512511138916004,-9.575759177398682
770,-0.360028074645996,-0.5116109672546386,-9.5753102645874
780,-0.4281131843566893,-0.5026327110290526,-9.630676177978515
790,-0.2621650817871093,-0.4459200226714834,-9.81248528202474
800,-0.1253963119506836,-0.3283049026489257,-10.046818354034423
810,-0.2017115081344731,-0.19677344894409177,-10.228478404998778
820,-0.3844190040588378,-0.12285247268676763,-10.313622201538086
830,-0.2651578155959955,-0.194678504225146,-10.281748807415367
840,-0.06329670639038087,-0.3034650604248046,-10.123432807159423
850,-0.02588730545043949,-0.3649661155700683,-9.870844532012939
860,-0.1150713172912598,-0.4052186309814453,-9.67167688140869
870,-0.10684123081816363,-0.4562450355972162,-9.567827799877524
880,-0.11462240447998043,-0.42661680831909166,-9.536853400421144
890,-0.2023100402832031,-0.3377320716857909,-9.576058452606201
900,-0.3604769874572753,-0.263062907409668,-9.715071786499024
910,-0.4733037224258295,-0.3018190285171381,-9.82026643742025
920,-0.2798223190307616,-0.3669114044189453,-9.912294148254395
930,-0.09457094730986282,-0.3205237472534178,-9.99788685760498
940,-0.1629553504943847,-0.23298574905395508,-9.989806427001952
950,-0.3568856849670409,-0.1949777976989746,-10.039336473846435
960,-0.4309562988281249,-0.23253683624267577,-10.087519782257077
970,-0.43245265659941345,-0.24256253742827102,-9.997138085064291
980,-0.5960065757751464,-0.1777694732666015,-9.915286900329589
990,-0.6835445739746093,-0.2575263160705567,-9.843161575317382
1000,-0.6361094535827635,-0.3872621185302733,-9.833285493469237
1010,-0.6663362495422362,-0.4055178879226558,-9.881318579754232
1020,-0.6102221663986331,-0.41644143299711855,-9.87009634399414
1030,-0.38307226562499985,-0.4670189613342285,-9.874884747314454
1040,-0.2507926239013672,-0.46881461257934554,-9.887304668426514
1050,-0.357484217115771,-0.3811269402435048,-9.878774740490318
1060,-0.5587468124389647,-0.3500023186614737,-9.87653017643392
1070,-0.5871779571533202,-0.4025251175811514,-9.804105576214194
1080,-0.4674678741455077,-0.4306570236206054,-9.74844097213745
1090,-0.4441243714263662,-0.4007294663360342,-9.734075177654622
1100,-0.48288054733276364,-0.3884592558929695,-9.776423204040524
1110,-0.4144961624145508,-0.4147954376220702,-9.867402867126462
1120,-0.2479494728973135,-0.3808277015686034,-9.916334363555908
1130,-0.0849941589355469,-0.3148374817779288,-9.900772052764891
1140,-0.060004642575047895,-0.27069442520141607,-9.874136559295653
1150,-0.09965864410400399,-0.3088520141601563,-9.847052153015138
1160,-0.22385785522460944,-0.34641105270385736,-9.786299285888672
1170,-0.4361935784270986,-0.3318962051391602,-9.678410573577882
1180,-0.3711012938568368,-0.3905541458129881,-9.589525836944581
1190,-0.2795230438232422,-0.4005798287322743,-9.592817864227296
1200,-0.3212719352722168,-0.3151367935180664,-9.653570731353758
1210,-0.3229179854461923,-0.2618658065795898,-9.754276838684081
1220,-0.2539349770477042,-0.23298571252133699,-9.843759541210531
1230,-0.1948281600952149,-0.2389712532043457,-9.848398891448975
1240,-0.14440028762817392,-0.30451252365112313,-9.821314485168456
1250,-0.1797147621154785,-0.3526958320617675,-9.7813612449646
1260,-0.18405425262451167,-0.4065653694152831,-9.682450788879397
1270,-0.22894549721982327,-0.3907037468841299,-9.594762568554284
1280,-0.3247135636260733,-0.3181295455932617,-9.581445406341551
1290,-0.26934765023496,-0.3299509162902832,-9.670629418182372
1300,-0.20664953079223639,-0.3137900550842286,-9.818321733093262
1310,-0.2105401084899902,-0.250942261505127,-9.938181453704834
1320,-0.21308394775390618,-0.1979705497741699,-10.068515806579587
1330,-0.3187280960083008,-0.15741875915527348,-10.148272649383545
1340,-0.3699041930267587,-0.19048866958618157,-10.193163930511474
1350,-0.4152443504333495,-0.2642600082397461,-10.13824692993164
1360,-0.42302550582885734,-0.3356371452331543,-10.00462054977417
1370,-0.4528033889770506,-0.39190088424682606,-9.828946002960205
1380,-0.5039794129302724,-0.4622305214812978,-9.663446228680014
1390,-0.5964554520538075,-0.537947112451121,-9.650727032360434
1400,-0.6257844589233398,-0.5533598587036133,-9.62035118331909
1410,-0.5095160042693837,-0.5488706940582021,-9.619752048382162
1420,-0.417488914489746,-0.5497685562133788,-9.622446109771728
1430,-0.3820248023986816,-0.562338114929199,-9.618106619262694
1440,-0.3217208480834961,-0.5928641860961913,-9.663746088409422
1450,-0.1946785224914551,-0.5720645591735839,-9.707140993499754
1460,-0.2780267043182626,-0.4014776908874511,-9.88206735229492
1470,-0.3896563201904296,-0.25184008712768546,-10.013748443603514
1480,-0.4566939301421864,-0.1584662223815918,-10.131064324951172
1490,-0.44606969680786124,-0.1405097099304199,-10.172065028381349
1500,-0.412999786376953,-0.19662381134033202,-10.016741195678708
1510,-0.37364513312075287,-0.3015197715759278,-9.865756853485104
1520,-0.4326023124694823,-0.3763385734558105,-9.755922852325439
1530,-0.3930979850769043,-0.4785410568237304,-9.648183777618408
1540,-0.3769371238708496,-0.4748001167297363,-9.654917469787597
1550,-0.4165910523345693,-0.4329015511443838,-9.65850818775594
1560,-0.3248632377624511,-0.4351461517333983,-9.686042091369629
1570,-0.2798223555633798,-0.43200376205444335,-9.744400756835937
1580,-0.26216511831972755,-0.4297591979980468,-9.743652568817138
1590,-0.2982277077605948,-0.4131494239807128,-9.75337901306152
1600,-0.4846761620452627,-0.35015195626523354,-9.750236038860677
1610,-0.5075707154205068,-0.358082749264501,-9.690680272564292
1620,-0.3975871131896972,-0.3975871131896973,-9.691429045104979
1630,-0.40147765435483296,-0.39609070061948154,-9.648632105907797
1640,-0.3037643356323242,-0.4427776695251463,-9.637559507751464
1650,-0.2076969574859366,-0.45160625161435447,-9.720607793316244
1660,-0.2097919204711914,-0.4007295028686524,-9.781660520172117
1670,-0.31199440383911137,-0.3380313468933106,-9.856329684448243
1680,-0.40312370452880847,-0.3218704856872558,-9.909750308990478
1690,-0.4985924591949208,-0.29059618996884673,-9.900621830639242
1700,-0.6094739601135253,-0.2525882751464844,-9.905410818481444
1710,-0.6022913916656746,-0.2694973243713378,-9.950451737213132
1720,-0.42377369384765623,-0.33429040679931643,-9.964368034362792
1730,-0.2868552498748526,-0.3509001442840323,-9.93533775471151
1740,-0.35284546966552727,-0.34237083740234375,-9.849446354675292
1750,-0.5494692810058592,-0.4080617454528809,-9.702651865386963
1760,-0.6663362495422362,-0.5217863243103026,-9.59670844192505
1770,-0.702847788327001,-0.6220434822967276,-9.489268057903649
1780,-0.5870283195495605,-0.6781576202392576,-9.4626331489563
1790,-0.460285269165039,-0.6482300994873046,-9.540594340515137
1800,-0.4240729325225576,-0.5612906151702626,-9.654168697246908
1810,-0.43305118874814347,-0.48542438659667964,-9.743951844024657
1820,-0.4574421546936034,-0.4191349281311034,-9.779266318511963
1830,-0.4025251175811514,-0.4032732690673321,-9.80530267704427
1840,-0.3125929907867684,-0.4189852905273437,-9.93444051361084
1850,-0.36975451889038086,-0.38352114190366116,-10.07524949874878
1860,-0.4249707946777342,-0.33429040679931643,-10.195258856964111
1870,-0.3745429222106934,-0.2986766571044922,-10.243142890167235
1880,-0.2855085114410147,-0.26815054940488187,-10.159195609936116
1890,-0.2370259278228506,-0.2977787949493155,-9.968258027538656
1900,-0.3137900185516104,-0.3736450600555167,-9.749038938030603
1910,-0.4326023124694824,-0.4590881683349609,-9.583241057586669
1920,-0.4994903213500976,-0.5029319131713359,-9.472209371075033
1930,-0.5126584304809569,-0.4731540665557607,-9.459640396881104
1940,-0.4101566353728995,-0.4209305793762206,-9.50632732925415
1950,-0.1836053398132325,-0.3935468978881835,-9.643395374298095
1960,-0.1701379554748535,-0.3212719352722168,-9.83747534637451
1970,-0.3428197502136231,-0.2813186950683594,-9.957783979797362
1980,-0.289848038482666,-0.34222119979858395,-9.926509720611573
1990,-0.1993172516753896,-0.4004301545958965,-9.847650118908287
2000,-0.256029940032959,-0.4616320075988769,-9.702801502990722
2010,-0.38082770156860346,-0.562338114929199,-9.585335984039308
2020,-0.570717820739746,-0.608426496887207,-9.580397943115235
2030,-0.646733723449707,-0.5991489654541013,-9.519196163177488
2040,-0.517746109008789,-0.5819406410217285,-9.530418983459473
2050,-0.489614239501953,-0.5035305366516113,-9.604339959716796
2060,-0.4932055054595693,-0.45355154046323143,-9.705943308147788
2070,-0.425868656832911,-0.4469675224304199,-9.86381156463623
2080,-0.3661632164001465,-0.43544542694091787,-9.999981784057617
2090,-0.33010051736142476,-0.4450221970489248,-10.013598221477865
2100,-0.4375403533935546,-0.46327798470761616,-9.959429408916831
2110,-0.409857396697998,-0.5548562347412108,-9.869497793579102
2120,-0.303315459353663,-0.6133645378112792,-9.783306533813477
2130,-0.33264435662534086,-0.5903203468322752,-9.677812023162842
2140,-0.41763851556088777,-0.5545569230010731,-9.674369773754476
2150,-0.5699696327209471,-0.5059247383117675,-9.769240599060058
2160,-0.5213373749664052,-0.516549008178711,-9.853187294769285
2170,-0.3995324385711923,-0.5077203895568847,-9.930101023101805
2180,-0.2665045722961426,-0.47270519027709956,-9.9851676612854
2190,-0.2591723297119141,-0.4335001380920409,-10.02975966720581
2200,-0.3467102548461407,-0.41030627297665917,-10.108318824657797
2210,-0.4420294815063475,-0.4055179061889647,-10.102932455444336
2220,-0.4923077163696288,-0.4553472282409667,-9.963619846343994
2230,-0.45848958138730367,-0.5325602683136238,-9.789890588378906
2240,-0.4302081108093262,-0.5903203468322753,-9.631424365997315
2250,-0.571914885037206,-0.6120177993774413,-9.554061724853515
2260,-0.6223427940368651,-0.6810007347106932,-9.548974046325682
2270,-0.5439326531341299,-0.6744166436126455,-9.667336806377767
2280,-0.4938040558746083,-0.5487210929870605,-9.791686239624024
2290,-0.4944026793548836,-0.4593874435424803,-9.942371306610108
2300,-0.595557626431249,-0.4183867035796865,-10.069562685284016
2310,-0.583437017059326,-0.4490624488830566,-10.046519078826904
2320,-0.5614403258392587,-0.4988917709350586,-10.046369441223144
2330,-0.5686228942871092,-0.5588964500427245,-10.007463664245604
2340,-0.7594107660155742,-0.5892728470733388,-9.979929760631919
2350,-0.8529343414306639,-0.6410474945068358,-9.922768780517577
2360,-0.7638998941283672,-0.6153097901275381,-9.891493936809896
2370,-0.6929717064788563,-0.5826887925079092,-9.826401579174398
2380,-0.6807014960357918,-0.6081272216796875,-9.740659816741942
2390,-0.8451531860351561,-0.5916670852661132,-9.692626145935058
2400,-0.8028057441711425,-0.6551134292602538,-9.587879823303222
2410,-0.6159083405425771,-0.7128735443115233,-9.555707738494872
2420,-0.6610989334106444,-0.6579565437316893,-9.571419686889648
2430,-0.7844003189086912,-0.6078279099395498,-9.56423649738729
2440,-0.8188169677734374,-0.6169558403015136,-9.663446813201901
2450,-0.863109698486328,-0.6293757614135742,-9.719860189819334
2460,-0.8110357758453114,-0.682347436611913,-9.578601707348227
2470,-0.7520785964965819,-0.7413046524932607,-9.492261394500732
2480,-0.753874211209081,-0.7700351089477537,-9.387515071868895
2490,-0.8047509964874013,-0.7528267479827626,-9.340378642162682
2500,-0.750133307647705,-0.7291840431213379,-9.44213279724121
2510,-0.5653308304717762,-0.6795043221404775,-9.593864742931723
2520,-0.3591302490234375,-0.5979518646240233,-9.761160168457032
2530,-0.3685574180603028,-0.4791396072387694,-9.874136559295655
2540,-0.5120598435332998,-0.36975448235776265,-9.886555895885824
2550,-0.6676830245086922,-0.2989759323120117,-9.905111543273923
2560,-0.7172129617553203,-0.3125929177215323,-9.871741773113607
2570,-0.5382464607238768,-0.3781342247009276,-9.836427883148193
2580,-0.4332008994171396,-0.40536826858520497,-9.846004689788817
2590,-0.5927145484924314,-0.398933833357226,-9.802908475384116
2600,-0.7432499778747557,-0.4551975906372069,-9.820865572357178
2610,-0.7797615531921386,-0.4715080894470214,-9.815628256225587
2620,-0.8155249404907225,-0.4481646232604979,-9.841365924072264
2630,-0.7490858444213866,-0.5018845230102538,-9.842114112091064
2640,-0.6994061599731444,-0.5780500633239747,-9.813982242584228
2650,-0.7190086860656738,-0.5460276161193847,-9.85109236831665
2660,-0.7380126617431639,-0.41793782730102524,-9.998036495208737
2670,-0.7697358337402342,-0.316633151289355,-10.104278609356282
2680,-0.7984662171294912,-0.3200748161758295,-10.11954164493978
2690,-0.8183680914947762,-0.40447042469633726,-10.043077413940429
2700,-0.8556278182983397,-0.5520131202697753,-9.856479322052001
2710,-0.8622118728637694,-0.7776666267395018,-9.653121818542479
2720,-0.8219593574523925,-0.9606734526703133,-9.56917512283325
2730,-0.8376713058471679,-1.0143933158874512,-9.55735375213623
2740,-0.8230068572113289,-1.084872663790919,-9.471461767578127
2750,-0.8955810585021972,-1.0389338463714346,-9.53894832687378
2760,-1.0453682633331045,-0.941669403927587,-9.555557516369223
2770,-1.1174936614105477,-0.8399158699035643,-9.512312833404541
2780,-1.1390414398193358,-0.6869862388610839,-9.729436996459958
2790,-0.9165303230285644,-0.5424363136291503,-9.984120198059083
2800,-0.8729857803344726,-0.3818751647949217,-10.288782359313965
2810,-0.9654618194580078,-0.28820202484130863,-10.512191301727295
2820,-1.0851718659332021,-0.2178723145416006,-10.556782723125814
2830,-0.8503904291015116,-0.3827729538848622,-10.37392557133138
2840,-0.5166986457824706,-0.6132149002075196,-10.208127690887448
2850,-0.6736684921264648,-0.7887398094177246,-9.941024568176267
2860,-1.0001777069976554,-0.9075520302703604,-9.62917921741903
2870,-1.0812813613006844,-0.9693523971557616,-9.635015668487549
2880,-1.1040262040069324,-0.9205705017974599,-9.64728536747396
2890,-1.1682208090851083,-0.8352771041870117,-9.751433724212646
2900,-1.2382511345794425,-0.7356184600830077,-9.917232189178465
2910,-1.1730091758728025,-0.7071872788360343,-9.901070743450521
2920,-1.0170867562225088,-0.7016506509643048,-9.94222108448446
2930,-0.897077471072413,-0.7667430816650389,-9.925611894989016
2940,-0.8869020409515127,-0.8378209069183096,-9.825204478344318
2950,-0.9907506110260262,-0.9259574555328114,-9.841814836883543
2960,-0.9699509475708006,-1.0633247757842763,-9.729436996459961
2970,-1.2096703887939453,-1.1180922118255867,-9.618405894470214
2980,-1.5746365043640136,-1.1445779946258292,-9.501987838745116
2990,-1.8299182929107918,-1.2116156776428222,-9.387664709472656
3000,-1.8992004669189453,-1.3162122896056623,-9.296983737072347
3010,-1.6696563827514648,-1.4291887535095213,-9.229048264965414
3020,-1.5441104697296395,-1.368884835726954,-9.297882147216797
3030,-1.4212579239776357,-1.290923607635498,-9.399186804962158
3040,-1.2874819062164053,-1.190666413116455,-9.473855384716389
3050,-1.2096703887939453,-1.1022306258270516,-9.49480523376465
3060,-1.1846809089660644,-1.0684124543121083,-9.456348369598388
3070,-1.4058453238556163,-1.060331987176463,-9.302370690807697
3080,-1.4959270882537588,-1.0945990349700674,-9.285911138916017
3090,-1.3172597893645985,-1.1029787042479962,-9.571568739971516
3100,-1.3275848205566405,-1.0841244027068837,-9.78121160736084
3110,-1.449838742828369,-1.0006266563415527,-9.925611894989016
3120,-1.5038578812530263,-0.8786719727447255,-10.027065605816244
3130,-1.3717279136657714,-0.8812158485412598,-10.01689083328247
3140,-1.163133094024658,-1.0185831687927245,-9.961674557495119
3150,-0.9624690673828122,-1.1584943283081053,-9.69651672363281
3160,-1.0688614401886238,-1.2651859763214364,-9.299977073669433
3170,-1.4489409172058105,-1.338807640838623,-8.981099340057371
3180,-1.5957353699615222,-1.504606105804443,-8.840140717315673
3190,-1.7099088616302236,-1.5836147605895996,-8.903587061309814
3200,-1.7194855952056125,-1.5550339782714842,-9.111732383617758
3210,-1.506252119445801,-1.4321814690520989,-9.425821713909505
3220,-1.260846412747167,-1.310077220916748,-9.78166052017212
3230,-1.2472293908050283,-1.1767501159667968,-9.992050991058349
3240,-1.2029366966247559,-1.199495031738281,-10.078391888427733
3250,-1.1005846121856941,-1.339855067532323,-9.985766211700438
3260,-1.0857704163482413,-1.4546271096160635,-9.842563024902343
3270,-1.132008508975245,-1.5263035583496092,-9.819069921112058
3280,-1.283890640258789,-1.5584756066253407,-9.867702142333982
3290,-1.465251416015625,-1.5366285530090327,-9.98397056045532
3300,-1.4661492781708017,-1.432181542117335,-10.11939259185791
3310,-1.4332290053436532,-1.2312182402679697,-10.233566083526611
3320,-1.1165956896575167,-1.0951975853851064,-10.427795108684894
3330,-0.9168295982360839,-0.9255085792541503,-10.684573821258544
3340,-1.0058639724731444,-0.6585550941467284,-10.897059218597411
3350,-1.1457750954559072,-0.4770446442535147,-11.01991110676229
3360,-0.8622118728637694,-0.5264250900268556,-11.095029768371582
3370,-0.6081272582123055,-0.5762543755462394,-11.014973650360107
3380,-0.4243722442626953,-0.5903203468322754,-10.875661041259766
3390,-0.4004302276611328,-0.6733692169189451,-10.645967319488525
3400,-0.6120177628448232,-0.8399158699035643,-10.324096833801269
3410,-0.8737340048858895,-0.9632172554016112,-9.982324546813967
3420,-0.7597100777557119,-1.1059714563231915,-9.649529931530354
3430,-0.48018707046508785,-1.256955871582031,-9.408763611602783
3440,-0.671573565673828,-1.2179004570007324,-9.286958602142333
3450,-0.9252093040466308,-1.1541548377990722,-9.214982914733888
3460,-0.7088333655426278,-1.1776479415893553,-9.295188670349122
3470,-0.3426700760772452,-1.1611878051757811,-9.430461064147952
3480,-0.01690904922485348,-1.0410288824219256,-9.433753091430665
3490,-0.05207388610839847,-0.8810662109374998,-9.581445406341553
3500,-0.24839842224121095,-0.7094318794250489,-9.8073981880188
3510,-0.25872338036801673,-0.5684731836181134,-9.958531583294272
3520,0.0038905411651357635,-0.457741429901123,-9.971700276947022
3530,0.19482823316045106,-0.3666120561461896,-9.825952666363118
3540,0.20545250302739437,-0.3778349494934082,-9.598504093170167
3550,0.18300675286557522,-0.5351040710449219,-9.432705628204348
3560,-0.034416612332128005,-0.6612484979491681,-9.263165638622642
3570,-0.24690200967099524,-0.6596024843078108,-9.207650087627767
3580,-0.43095633536074307,-0.5256769020080566,-9.398139341735838
3590,-0.49874209679868076,-0.3470096031188965,-9.818022457885743
3600,-0.6552630668640136,-0.07541735229492186,-10.338910956573484
3610,-0.8360252922058105,0.10235212097167967,-10.713902791595457
3620,-0.6438906089782714,0.09083002548217778,-10.940603761291506
3630,-0.4209305793762207,0.03725976333618153,-10.910975515747069
3640,-0.32845454025268556,-0.08798691101074219,-10.590751043701172
3650,-0.3125929177215323,-0.35778343752436337,-10.12522787388265
3660,-0.2771288056304678,-0.635660394641012,-9.667486443981527
3670,-0.2539349770477042,-0.810137986755371,-9.265410787200928
3680,-0.48347909774780273,-0.8090905235290528,-9.109488404083253
3690,-0.8251017471313475,-0.7390601249694825,-9.16141265258789
3700,-0.9485527702331542,-0.7248445526123047,-9.296086495971679
3710,-0.7799111542632803,-0.8001121942382305,-9.450811193737387
3720,-0.6139630882263183,-0.7882908966064452,-9.554959550476074
3730,-0.6364087287902831,-0.6911760917663574,-9.487173715972899
3740,-0.711227567202784,-0.5985504150390625,-9.40472339630127
3750,-0.7585129769256338,-0.5958568651061504,-9.370006887707113
3760,-0.6892308029174803,-0.6452373474121094,-9.397690428924559
3770,-0.8997709114074706,-0.6123170745849609,-9.439289682769775
3780,-1.1516109985351561,-0.552910945892334,-9.48118821182251
3790,-0.9521440727233885,-0.641646044921875,-9.606285248565674
3800,-0.6530184662749989,-0.6744166070800274,-9.630825231060385
3810,-0.7016507240295409,-0.565480431542918,-9.627233928570151
3820,-0.661996759033203,-0.5970540390014648,-9.613767128753663
3830,-0.4758475068908184,-0.5885246225219221,-9.627832478985193
3840,-0.3410240624358878,-0.5612905786376446,-9.65267232120931
3850,-0.2313396988799796,-0.6260837341308594,-9.554061724853515
3860,-0.33578681936953225,-0.7691372833251953,-9.356689725494384
3870,-0.6292261238098144,-0.8276455863952635,-9.03227540054321
3880,-1.071255605316162,-0.8007108177185057,-8.736292220306396
3890,-1.197100830078125,-0.9319429962158203,-8.694842604064942
3900,-1.2403461340973152,-1.1041758781433104,-8.797942913055419
3910,-1.1887211242675781,-1.1400889030456542,-8.98304462890625
3920,-1.162534580142237,-1.0251672233581541,-9.204508282470703
3930,-0.9677063835144042,-0.9310451705932616,-9.409960712432863
3940,-0.7131727829864247,-0.8453027871062978,-9.532962238201499
3950,-0.6197989182403311,-0.8300397515228017,-9.587430325970054
3960,-0.6660369378020986,-0.903362177365087,-9.587579963573813
3970,-1.07379940804746,-0.9217676391601561,-9.567080196380616
3980,-1.1966519172668457,-0.999130280303955,-9.439588957977296
3990,-0.9268553176879882,-1.1444283935546875,-9.370306747436523
4000,-0.7992144416809082,-1.2828431770324706,-9.260772021484375
4010,-0.7579144630432129,-1.392377902984619,-9.101258335876462
4020,-0.6658873367309569,-1.4339771568298338,-9.101557611083983
4030,-0.6564601311614736,-1.3838485595703123,-9.22620515049398
4040,-0.4776432677337899,-1.3754688537597655,-9.375244788360597
4050,-0.259172293179296,-1.3608043320586902,-9.552415126690265
4060,-0.34386721343994137,-1.271919668490626,-9.647734864807129
4070,-0.5538087715148925,-1.2384008452484383,-9.70459715423584
4080,-0.4963478951385244,-1.3760673311095684,-9.782258486065267
4090,-0.3924994346618652,-1.506102481842041,-9.74350293121338
4100,-0.5946598008086904,-1.4806640526702628,-9.687986795696615
4110,-0.746242693417333,-1.4659994944365695,-9.792882755932212
4120,-0.42317510689999915,-1.5179238890716804,-10.00551837539673
4130,-0.1677437172820791,-1.4311340423583983,-10.232518035778405
4140,-0.3941454483032226,-1.271770030886866,-10.343848997497558
4150,-0.7037456504821777,-1.2081740492889657,-10.421660551452634
4160,-0.6259340599944814,-1.2834416909148916,-10.500668621715903
4170,-0.4795884469848126,-1.344344195645116,-10.472087839397787
4180,-0.6331167015075684,-1.3064859184265134,-10.389787741851807
4190,-0.6624456718444823,-1.3066355925628914,-10.34863740081787
4200,-0.4816834465026856,-1.2945149466583505,-10.49064348678589
4210,-0.4912602531433107,-1.1581950531005858,-10.648660796356204
4220,-0.7155670211791991,-1.0324994659423827,-10.753856031799314
4230,-0.7767688011169432,-1.11719434967041,-10.810419046020506
4240,-0.6248866333007813,-1.2267291486877947,-10.743979949951171
4250,-0.6395511184692383,-1.1520599113464354,-10.389338829040527
4260,-0.5967547637939452,-1.1013328367371111,-10.052055670166016
4270,-0.7032966646056623,-1.1281178216796368,-9.99863446110189
4280,-1.1502642601013182,-1.1162965240478515,-10.154856703948976
4290,-1.4030021728515623,-1.0133458526611328,-10.496479353332521
4300,-1.394772031579539,-0.7835024202208964,-10.861893797191977
4310,-1.2592004356384277,-0.4496609992980957,-11.102362010955812
4320,-1.143231292724609,-0.2370259643554687,-11.08964281463623
4330,-1.1502642601013182,-0.2226607543945312,-10.990582720947266
4340,-1.3814543579101561,-0.23104046020507812,-10.832864686584472
4350,-1.6750433364868162,-0.19871873779296884,-10.7520603805542
4360,-1.9587562332153317,-0.17687164764404306,-10.77704986038208
4370,-1.778143645477295,-0.18285707872919732,-10.916212831878662
4380,-1.2443862398009746,-0.16894078157953918,-11.057619782909748
4390,-0.8447042732238769,-0.14544767778925594,-11.048641526684165
4400,-0.8524854286193849,-0.11402385406494142,-10.856208152770993
4410,-0.7900865478515626,-0.18330606460571286,-10.592995607757569
4420,-0.6296750366210937,-0.37289690856933594,-10.219649786376953
4430,-0.4586392555236816,-0.6108206985473633,-9.78076269454956
4440,-0.5472247169494628,-0.6884826148986817,-9.51859761276245
4450,-1.1382932518005369,-0.5442319648742676,-9.427318674468994
4460,-1.6431705268859862,-0.3938461730957031,-9.40457375869751
4470,-1.6543932741027325,-0.2748842050414532,-9.492261394500732
4480,-1.5107412475585935,-0.17791911087036127,-9.457994383239743
4490,-1.271620356750488,-0.234332487487793,-9.310601343536376
4500,-0.9804255798339843,-0.44397477035522465,-9.169642720794677
4510,-0.8322843521118164,-0.6343138023376466,-8.902090685272215
4520,-0.9853636207580567,-0.6296750366210937,-8.586953891754147
4530,-1.2741641960144041,-0.5053261148314923,-8.520963708496094
4540,-1.3795090690612792,-0.41509471282958993,-8.676736454010008
4550,-1.230918928527832,-0.34581250228881827,-9.13447788391113
4560,-0.9855132583618167,-0.18405425262451175,-9.586981997680665
4570,-1.0119991142272948,0.07182604980468754,-9.879822788238524
4580,-1.2288240751404313,0.22430676803588867,-10.030058942413332
4590,-1.2259808876037597,0.07287351303100587,-9.855731134033203
4600,-0.9208697404723615,-0.1999157655578107,-9.541042668804526
4610,-0.7341220840454101,-0.35808278579711916,-9.209446323394776
4620,-0.8655039001464844,-0.4878185882568359,-8.978405863189696
4630,-1.3166612754821776,-0.5847837554931641,-8.794351610565187
4640,-1.4508862060546874,-0.7209539749145508,-8.64396581878662
4650,-1.2385503732543441,-0.771681049523875,-8.441056643566489
4660,-1.35751241437383,-0.6675333503723144,-8.2736127494812
4670,-1.4981716888427734,-0.7261912910461426,-8.266579782104492
4680,-1.2033856094360351,-0.977432827758789,-8.32658446121216
4690,-0.8895955543518067,-1.0859200904846191,-8.488791623687744
4700,-0.9172785110473632,-1.0594342346191405,-8.630498434448242
4710,-0.9903015886168927,-1.048211341271922,-8.7530510474056
4720,-1.1270704315185547,-1.0073604215759784,-8.942941751098633
4730,-1.3569137178283182,-0.9091980073790996,-9.030030251964925
4740,-1.5891512788634747,-0.8518867320738732,-9.086443628582357
4750,-1.54500825881958,-0.9220669143676757,-9.18056626586914
4760,-1.4947299508910625,-0.9189245246887205,-9.227702111053466
4770,-1.3747206657409667,-0.962169865240529,-9.286360051727293
4780,-1.1487678109984842,-1.039831708526611,-9.368361458587646
4790,-1.0045172340393067,-1.0579377855163066,-9.44841757659912
4800,-0.9157820619445294,-1.0724526330810038,-9.534458614239094
4810,-0.8146271148681641,-1.0995371124267577,-9.619602995300292
4820,-0.8189666053771972,-1.0811316871643064,-9.769390236663817
4830,-0.8563760063171386,-1.073799444580078,-9.935039064025876
4840,-0.8999205490112304,-1.0770914718627929,-10.08108536529541
4850,-1.1538554895263164,-1.002871147332713,-10.155454669842124
4860,-1.6144401069641112,-0.9018658378601073,-10.227281304168702
4870,-1.5708955642700193,-0.9772831901550292,-10.319158792877197
4880,-1.30483983171992,-1.0568903222899881,-10.389487882122397
4890,-1.4248492630004885,-1.0027215827941893,-10.251821871185301
4900,-1.6288052438598126,-1.0489595292907208,-10.05415001209676
4910,-1.7063175956726073,-1.2125135032653809,-9.88895068206787
4920,-1.604414387512207,-1.4061446355957536,-9.689633393859863
4930,-1.426046363830566,-1.6027683738708496,-9.506626604461669
4940,-1.3792097938537595,-1.6828244918823243,-9.436147293090821
4950,-1.6098013412475585,-1.5246575447082518,-9.496301609802245
4960,-1.8390461502075195,-1.215506255340576,-9.794978266906739
4970,-1.6329951698303222,-0.9831190567016602,-10.294917501068115
4980,-1.2375029830932616,-0.8454524612426757,-10.798747312927246
4990,-0.9786299285888672,-0.7454945419311525,-11.103559111785888
5000,-0.935833573913574,-0.7823053924560548,-11.080963833618164
5010,-0.9012672874450683,-0.9986813674926758,-10.720486846160888
5020,-0.7034463022094218,-1.2416927629332988,-10.225933981212973
5030,-0.4776432312011717,-1.3171101152282205,-9.843011353191734
5040,-0.5309141450744124,-1.1495159990172834,-9.677811438640953
5050,-0.7320270845275372,-0.7688379350524395,-9.858124751171472
5060,-0.8113351606506854,-0.27159225082397465,-10.41343048324585
5070,-0.8562262956481428,0.21083945676274596,-10.997764741405843
5080,-0.8542810798645017,0.5204395858764649,-11.509226655578612
5090,-0.8168716789245605,0.5585972479004413,-11.847407640075684
5100,-0.6057330200195312,0.43394905090332037,-11.814188092041014
5110,-0.3169324447631836,0.22744915771484375,-11.503989339447019
5120,-0.33369192944951354,0.028580782318115228,-10.779144786834715
5130,-0.5095159677367658,-0.23956973055414865,-10.044273930248616
5140,-0.6239888076782227,-0.614860913848877,-9.522488190460205
5150,-0.7359176622252911,-0.8725367944579572,-9.095571522411703
5160,-1.0085574493408203,-0.9112929338317365,-8.926930527496337
5170,-1.2859855667114255,-0.864456436920166,-8.972869271850586
5180,-1.5800234580993653,-0.7413046890258788,-9.145700704193114
5190,-1.4474445411682129,-0.6515221267700195,-9.451410328674315
5200,-0.8734346931457518,-0.5077203895568847,-9.807547825622558
5210,-0.41838674011230464,-0.31289222946166995,-10.019733947753906
5220,-0.28476035995483395,-0.18644845428466794,-10.109666147613527
5230,-0.35868133621215814,-0.15532383270263672,-10.135104540252685
5240,-0.37304654617309563,-0.21592706222534175,-10.015244819641115
5250,-0.5057750276427716,-0.30974976671747856,-9.713275550732016
5260,-0.9401730644226074,-0.35808278579711905,-9.236530729675293
5270,-1.0974421129088847,-0.4900630792479962,-8.823679996380209
5280,-0.9017162002563476,-0.6643909606933593,-8.642020529937746
5290,-0.8620622352600096,-0.6605003829956055,-8.661024505615234
5300,-0.8295908752441407,-0.5562029731750489,-8.881291058349609
5310,-0.6382043800354003,-0.4351460786681622,-9.297881562694908
5320,-0.35808278579711916,-0.32516251296997073,-9.66030442352295
5330,-0.21024083328247067,-0.27069442520141607,-9.712378309631347
5340,-0.38711240786127743,-0.2615664583068341,-9.46592459171712
5350,-0.6189011291503906,-0.38546646728515627,-9.064597122955321
5360,-0.5596446380615234,-0.6040870063781738,-8.786271179962156
5370,-0.7422024415832014,-0.6545148788452149,-8.564507666668295
5380,-0.9554361000061034,-0.6115688865661622,-8.538022395324706
5390,-0.9326911111693829,-0.5728126741271466,-8.71983149937093
5400,-0.953191535949707,-0.48422728576660157,-8.95132145690918
5410,-0.9398737161498516,-0.42676651898808776,-9.062202921295166
5420,-0.8348281183104961,-0.43589426668696113,-9.069684216961264
5430,-0.7239467269897462,-0.4815338088989258,-8.981997165679932
5440,-0.4523544031005352,-0.5529108728270977,-8.962094779857992
5450,-0.4869207626342773,-0.5181950218200684,-9.087940589141844
5460,-0.8445546356201172,-0.42497079467773435,-9.132682232666015
5470,-0.7975683549743144,-0.2458545099120587,-9.611222704967856
5480,-0.926855244622752,-0.06988076095581053,-9.931597399139402
5490,-1.1213842025756835,-0.042347441864013624,-10.210821167755126
5500,-1.0112508531432598,-0.15891513519287115,-10.276811351013183
5510,-0.9358335739135741,-0.2596212425231933,-10.120888967895509
5520,-0.9843161575317383,-0.40746319503784184,-9.862315188598632
5530,-1.1195884782653303,-0.4806359102111309,-9.724947283825276
5540,-1.3269862701416013,-0.4144961624145508,-9.731681560516355
5550,-1.2726677469115701,-0.3526957589965314,-9.795725870403649
5560,-1.135150789056346,-0.3235164262633772,-9.866205181774498
5570,-1.1763011300902813,-0.3149871559143066,-9.762207631683351
5580,-0.8674491889953612,-0.36885669326782233,-9.847800341033935
5590,-0.5900210716247558,-0.4191349281311034,-9.857676422882077
5600,-0.686986238861084,-0.38007951354980474,-9.816675719451904
5610,-0.9202712631225585,-0.37454284914545705,-9.778069217681882
5620,-0.9132382226806134,-0.4872199647765606,-9.718063954052328
5630,-0.9497497979979961,-0.5521626848082989,-9.742305245861411
5640,-1.0832266136169433,-0.610371785736084,-9.770437699890136
5650,-1.1330560087341814,-0.7700351089477538,-9.794379716491699
5660,-1.0149918663024902,-0.9322421983581035,-9.854085120391844
5670,-1.2476781940184531,-0.9401729913573712,-9.771484578594563
5680,-1.601870548248291,-0.8613140472412109,-9.617208793640138
5690,-1.5318400766234843,-0.811933564935252,-9.597007132610678
5700,-1.4233528869628906,-0.74699091796875,-9.688885205841064
5710,-1.5735890411376952,-0.6497264755249024,-9.846603240203859
5720,-1.7681179260253903,-0.579696076965332,-9.95239702606201
5730,-1.4725836585998535,-0.4534019393920899,-10.206631314849854
5740,-1.2921205623351038,-0.3600280015807599,-10.354771958050131
5750,-1.408987677001953,-0.3384802597045898,-10.306439596557619
5760,-1.4719851081848143,-0.3350385948181152,-10.209773704528809
5770,-1.435772735009715,-0.31887766054682437,-10.03604386204183
5780,-1.6003741722106932,-0.2340332122802734,-10.006266563415524
5790,-1.7476175743103026,-0.11746551895141599,-10.045022702789304
5800,-1.6850690559387207,-0.05641337661743162,-9.976039767456053
5810,-1.637484261410497,-0.08753799819946295,-10.110713610839843
5820,-1.6557400856018065,-0.15532383270263672,-10.018836122131347
5830,-1.476025323486328,-0.24944588546752933,-9.77343045196533
5840,-1.0437223227569832,-0.38127661437988286,-9.980678533172608
5850,-0.8361749298095702,-0.49530046844482434,-10.020033222961425
5860,-0.7208043007781728,-0.700902499478124,-10.030806545910236
5870,-0.783951406097412,-0.44023383026123053,-10.0487636428833
5880,-0.4495113434280267,-0.2741360535552726,-9.895534152111413
5890,-0.4121019424880854,-0.24420856933593743,-9.82520506286621
5900,-0.6007949790954589,-0.3209726235320791,-9.790638191875814
5910,-0.8758289313385261,-0.32830490264892576,-9.817124632263186
5920,-1.0995371306930668,-0.2793734062194825,-9.751732999420165
5930,-1.0965443238189443,-0.17657237243652346,-9.82625252609253
5940,-1.2605471923385745,-0.024241291809081966,-10.05789153671265
5950,-1.3582605841263198,-0.006434416961669909,-10.235511372375488
5960,-1.1183914687667973,0.14888941574096676,-10.488698197937012
5970,-0.7299322311401366,0.27608134240414955,-10.414777221679687
5980,-0.505625463104248,0.1840542526245117,-10.226682753753662
5990,-0.4234744003738276,0.11716624374389656,-10.043675379833582
6000,-0.3630208267211913,0.05491700057983395,-9.77582465362549
6010,-0.9129389840057118,-0.014814122772216831,-9.695169985198975
6020,-1.5725415048461404,-0.16250643768310552,-9.567080196380614
6030,-1.5710452201400882,-0.280271231842041,-9.495553421783447
6040,-1.1869254730224608,-0.20769695748593647,-9.737965755352377
6050,-1.191265000064112,-0.018704700469970637,-9.925611894989013
6060,-1.4673463607345707,0.08185176925659177,-10.047117629241942
6070,-1.4598645170792006,0.13976152191162106,-10.261997228240965
6080,-1.038634625962842,0.17537530813906338,-10.474332403454184
6090,-0.5759551277381832,0.16160864859316504,-10.57833053806722
6100,-0.6203975051879882,0.16385321264956154,-10.363301885986328
6110,-0.9163807036911136,0.19647421026919037,-9.992349681743981
6120,-0.7737760216422844,-0.06584050912167883,-9.589225977215172
6130,-0.5975029609458985,-0.3329436683654785,-9.494805233764646
6140,-0.6733692169189452,-0.3751414726257324,-9.26226839752197
6150,-1.0992378372192382,-0.3832219032287598,-9.091681529235839
6160,-1.7667712241241706,-0.40656533288266516,-9.387514487347007
6170,-2.1959318534408694,-0.3407248237609864,-9.643545011901857
6180,-2.008435899397265,-0.25977088012695315,-9.737367789459226
6190,-1.6294039038727057,-0.19168577041625984,-9.759214879608155
6200,-1.5364789702042003,-0.09711480484008794,-9.69696563644409
6210,-1.5532383818252942,-0.15981292428281163,-9.548524548992512
6220,-1.441758284825878,-0.3151367935180664,-9.521889640045167
6230,-1.2002432334568116,-0.3345896820068359,-9.51336029663086
6240,-0.872686541659571,-0.27458500289917,-9.36596725692749
6250,-0.8210615135635247,-0.2211643783569337,-9.387664709472656
6260,-1.1403881668367306,-0.24106614312436442,-9.50677565754354
6270,-1.2656349199571122,-0.3842693299224601,-9.566929974254966
6280,-1.4365209791117908,-0.4355950645446777,-9.452757067108154
6290,-1.6392799651712526,-0.38426936645507814,-9.394248764038085
6300,-1.6542437643631358,-0.4161421395232901,-9.41594563206136
6310,-1.3477859244636723,-0.4638765716552734,-9.547477670288085
6320,-1.1201871291450691,-0.3769371238708496,-9.613767128753663
6330,-1.1607389197639655,-0.40132805328369137,-9.553463174438477
6340,-1.2210427918807603,-0.4471171235015615,-9.575758592876792
6350,-0.935085413294239,-0.4137479378631338,-9.467570605358482
6360,-0.6512228698288091,-0.549618918609619,-9.344269804382323
6370,-0.45804066857602443,-0.6714239280700683,-9.496451247406005
6380,-0.26904841156005854,-0.6667851623535156,-9.654169281768798
6390,-0.5811924164703115,-0.5059247383117674,-9.804555073547363
6400,-1.142782434712257,-0.4088098969390615,-9.727940035900474
6410,-1.0348936310699206,-0.5472247169494628,-9.668833766937256
6420,-0.7758709754943847,-0.6444891228606924,-9.69831179035604
6430,-0.8348282279083505,-0.6486789757659658,-9.657909637340902
6440,-0.9611223289489745,-0.6257844589233398,-9.575908815002439
6450,-0.6908768530914561,-0.67022682723999,-9.793182615661621
6460,-0.4025251175811514,-0.5835866546630859,-9.928754284667969
6470,-0.5244797829116695,-0.39549215020444234,-10.034248210796713
6480,-0.8060977714538574,-0.32381575626982373,-10.30464336079061
6490,-0.9780313964401371,-0.3312976729904301,-10.606612629699704
6500,-0.9699509475708008,-0.27907413101196293,-10.683227082824708
6510,-0.7706336593627932,-0.2127846542800776,-10.657040502166748
6520,-0.7683891135727056,-0.1795651245117188,-10.506953985595704
6530,-0.7468412620986811,-0.2980780701568351,-10.321402772411703
6540,-0.6021416809966788,-0.4703110251495613,-10.219649786376952
6550,-0.4335001928909682,-0.6163572533538565,-10.132560116466877
6560,-0.4682160256316886,-0.5921159980773925,-10.082881016540528
6570,-0.6305728439773434,-0.42242695541381825,-10.158448006439206
6580,-0.852335809281934,-0.2385223403930664,-10.223540364074706
6590,-1.0082581923996097,-0.11581946877744048,-10.180743424877523
6600,-0.8595184325287119,-0.0987607819488272,-10.203338703045251
6610,-0.3725976333618164,-0.1939303344726563,-10.190470453643798
6620,0.22340890588071188,-0.26560671014096593,-10.319008570751548
6630,0.2877530937637201,-0.19318214645385742,-10.485256533050537
6640,-0.10474632263183589,-0.11267711563110344,-10.481066680145265
6650,-0.4557961593185551,-0.07272387542724612,-10.349984139251706
6660,-0.5202899665390142,-0.1719335701873526,-10.17026879261434
6670,-0.3845686507957522,-0.38741175613403317,-10.31676459121704
6680,-0.3957914710777346,-0.4727051902770995,-10.236558835601805
6690,-0.5120598526664544,-0.4230255058288573,-10.108319409179687
6700,-0.4324526931320318,-0.42661680831909166,-9.94012674255371
6710,-0.3947439895851071,-0.4159925384521484,-9.667636666107175
6720,-0.5885247047203127,-0.35583822174072266,-9.45515126876831
6730,-0.596305869248975,-0.4538508156707509,-9.452606844982505
6740,-0.24106617965698252,-0.62563482131958,-9.636212769317627
6750,0.018854319807421402,-0.6024409562041981,-9.878325827679035
6760,-0.0320224472045898,-0.4031237045288086,-10.102483542633056
6770,-0.2570773941261228,-0.1491886544158682,-10.417470114025473
6780,-0.5719149033035151,0.06613985739443456,-10.709712354168298
6790,-0.63326630257871,0.0597054039001465,-10.912920804595947
6800,-0.6045359374557622,-0.0019452523162588053,-10.947037593731283
6810,-0.5129577171049198,-0.0825999572753906,-10.850073011016846
6820,-0.6254852082611732,-0.1545756081512198,-10.518325858959553
6830,-0.6383540016561398,-0.3275567146301269,-9.99085389022827
6840,-0.5268739937049801,-0.5395931626250967,-9.592667642101645
6850,-0.4242226203586673,-0.7371148361206055,-9.304466201782226
6860,-0.3607762717979493,-0.877923821258545,-9.013421062469481
6870,-0.38441898579252876,-0.9077017044067383,-8.877849393463134
6880,-0.4210802169799804,-0.8346785537719725,-9.015665626525879
6890,-0.3202244720458983,-0.6838438491821288,-9.396194052886962
6900,-0.3607762626647948,-0.4548983154296875,-9.699509475708007
6910,-0.41225159835815417,-0.2883516624450683,-9.886257205200195
6920,-0.3821744400024413,-0.22625209341738367,-9.930549935913087
6930,-0.2302922721862792,-0.32725743942260743,-9.816675719451906
6940,0.0007481880187988066,-0.5141547334533185,-9.68364730518758
6950,0.19452890315400437,-0.6377553941588849,-9.577703881725668
6960,0.110432533308398,-0.6670844375610352,-9.358485376739502
6970,-0.2325368362426758,-0.6560112548828125,-9.03511851501465
6980,-0.7137713516677728,-0.6557119066100567,-8.679429346355796
6990,-0.8717886977707036,-0.7627028663635254,-8.48445213317871
7000,-0.7553705872466787,-0.7761701776366681,-8.96374079349935
7010,-0.4141969054733402,-0.5708674583435058,-9.686491004180908
7020,-0.16774375381469728,-0.33788170928955075,-10.067468343353271
7030,-0.045489831542968706,-0.26964696197509763,-10.11924295425415
7040,0.25468321986543013,-0.492906266784668,-10.068665444183349
7050,0.6127659873962401,-0.9105448188781737,-9.78031378173828
7060,0.6763619689941403,-1.2512695695739238,-9.173233438763022
7070,0.4239232949187979,-1.4341267944335936,-8.787019367980955
7080,0.2932897033691406,-1.520168416595459,-8.551190504455567
7090,-0.07736260461118072,-1.342548507867381,-8.477867494091392
7100,-1.607556740658544,-0.8210615318298339,-8.52335791015625
7110,-2.3120505426269027,-0.8219592843871563,-8.94219297855794
7120,-1.541117717654444,-1.1563994018554686,-9.668684129333496
7130,-0.2675520355224609,-1.0962450851440428,-9.937582903289794
7140,0.5934627365112306,-0.8575731071472167,-9.581445406341553
7150,0.5014356101989746,-0.8185176195006817,-9.149889972576497
7160,-0.1029506713867187,-0.9368809640746563,-8.890717642864585
7170,-0.3871124809265137,-1.1534067228455096,-8.717587519836426
7180,-0.4124012359619141,-1.2973580245971679,-8.649203134918212
7190,-0.2940378913879395,-1.331774673461914,-8.891616053009033
7200,-0.36721060656122867,-1.203984086785838,-9.432854681286216
7210,-0.5366004470825194,-1.0039186836242675,-9.893140534973144
7220,-0.36885669326782233,-0.8674491889953613,-10.180744009399412
7230,-0.3838204536437988,-0.750133307647705,-10.231022244262697
7240,-0.5493196434020995,-0.8080430603027343,-9.98546693649292
7250,-0.19183540802001947,-1.1951555412292478,-9.704746791839602
7260,0.3452139884063974,-1.4758756858825683,-9.49300958251953
7270,0.4264672072479502,-1.4555249717712402,-9.367912545776365
7280,-0.4391863670349122,-1.172260987854004,-9.384073406982422
7290,-1.322796417236328,-1.0293570762634277,-9.49929436187744
7300,-1.090409182064794,-1.208473214898631,-9.83897113789022
7310,-0.4770446807861327,-1.2761094848632812,-10.193762480926512
7320,-0.25632917870786043,-1.0874163934569805,-10.389936794933677
7330,-0.6069301208496093,-0.9057564155578612,-10.51503383167684
7340,-0.7805097412109374,-1.0063128852844239,-10.667215859222411
7350,-0.374093972866796,-1.231667189611867,-10.741436110687255
7360,-0.09397241516113286,-1.2614449996948243,-10.485855083465575
7370,-0.3467102913787588,-1.153556287384033,-10.160991845703123
7380,-0.7115268058776855,-1.214309154510498,-10.002675260925292
7390,-0.6992565223693847,-1.4767735115051268,-9.889998145294188
7400,-0.21921908950805663,-1.7914613191466775,-9.731831198120117
7410,0.10040683212280277,-1.8929156875610351,-9.569474398040771
7420,-0.11477204208374026,-1.7378911300659179,-9.344569079589844
7430,-0.44143089455869045,-1.4853028549194334,-9.279177446746825
7440,-0.8077437850952148,-1.3468880714416502,-9.46128641052246
7450,-1.1076175064971672,-1.3220482292175293,-9.798568984875084
7460,-1.31531453704834,-1.2424410240173338,-10.225186377716065
7470,-1.2071265495300292,-1.1786954048156737,-10.62965682067871
7480,-0.9322422714233398,-1.040131056799367,-10.896460668182373
7490,-0.8562263687133789,-0.8093897987365721,-10.973374396514892
7500,-1.061080248260498,-0.7118260810852048,-10.723928511047362
7510,-1.2144587921142578,-0.8327332649230956,-10.31107836227417
7520,-1.0087070138793437,-1.0800842239379882,-9.895834011840819
7530,-0.7157166587829589,-1.1610381675720214,-9.657461309051515
7540,-0.5180453842163086,-1.039981346130371,-9.543736730194091
7550,-0.5575496385436506,-0.7336731347015126,-9.689183896526695
7560,-0.4789899696350097,-0.452653751373291,-10.21456210784912
7570,-0.03142389678955071,-0.2941875289916993,-11.027543209075926
7580,0.4680664245605468,-0.13272851800229402,-11.612177326965332
7590,0.7029975355286151,-0.09636665335390715,-11.8108960647583
7600,0.33877953491210955,-0.1216553718566894,-11.572972274780271
7610,-0.3516483688354492,-0.20979192047119133,-11.059565656280515
7620,-0.6958147844176739,-0.49904133547358215,-10.467748348888755
7630,-0.8013093681335448,-0.7965210013458505,-9.976787955474851
7640,-1.463754966912791,-0.7761702141692862,-9.60194517353475
7650,-2.080112329864502,-0.7071873519012704,-9.486724803161621
7660,-2.173037281799316,-0.6411971321105957,-9.692326870727538
7670,-1.8460791175842286,-0.3942951224396006,-10.15814873123169
7680,-1.419911222076416,-0.0059855406830087166,-10.469544584655763
7690,-1.099986025238037,0.26904841156005865,-10.449193870544434
7700,-0.823006820678711,0.1812111381530761,-10.142885695648193
7710,-0.7981669784545898,-0.10833762512207029,-9.7039986038208
7720,-0.9885060104370116,-0.3401262733459473,-9.453654892730713
7730,-1.1387421646118163,-0.46911385125424704,-9.30177272491455
7740,-1.142034118829295,-0.5823895173003897,-9.169193223461507
7750,-1.0176853431701658,-0.6290764496734365,-9.238775293731692
7760,-0.8105868995666504,-0.515202269744873,-9.406967960357663
7770,-0.7314286071777344,-0.2829647087097169,-9.610924014282226
7780,-0.7429506296020001,-0.1650502404144033,-9.806050865063073
7790,-0.5563526107788086,-0.2371756019592286,-9.87712931137085
7800,-0.39728783798217765,-0.33818098449707035,-9.715819974517823
7810,-0.7963712541442364,-0.3910030220916494,-9.205255885967613
7820,-1.2802992647033185,-0.5942108879974111,-8.640224294170736
7830,-1.3639467582702636,-0.9650128701141103,-8.269422312054038
7840,-1.1936591651916504,-1.2689268433501943,-8.017433171844482
7850,-1.3500305341858416,-1.2690765174865721,-7.8939821487426745
7860,-1.5493477493286132,-1.1472715080261229,-8.01204621810913
7870,-1.3848959497313946,-1.0996867134978996,-8.310123740276696
7880,-0.9929951385498046,-1.0179845818450675,-8.679878843688964
7890,-0.6630442222595215,-0.8475473876953125,-8.98813230743408
7900,-0.35404257049560545,-0.7706336593627928,-9.113977532196044
7910,-0.30511107406616206,-0.8448539108276367,-9.30177272491455
7920,-0.437390715789795,-0.9427169036865234,-9.490166468048097
7930,-0.8420107963562011,-0.8900444671630858,-9.33978067626953
7940,-0.9796773918151855,-0.9835679695129393,-9.097667033386228
7950,-0.8448539108276366,-1.1495160720825195,-8.777741836547852
7960,-0.9834183319091796,-1.2237363235473633,-8.4015529006958
7970,-1.1595417915344237,-1.399410870361328,-8.226027991485596
7980,-0.9865606485228985,-1.584512586212158,-8.398110651287437
7990,-0.6462847375731916,-1.5541361161163079,-8.775496687969566
8000,-0.44771571044921876,-1.282543828759715,-9.331849883270264
8010,-0.38905776977539064,-0.9897031112670898,-10.003722724151611
8020,-0.43619361495971687,-0.8544307174682617,-10.510844563293457
8030,-0.9774327912261709,-0.758213665185496,-10.781688041576743
8040,-1.340004705136083,-0.8409633331298827,-10.637737251281735
8050,-1.1664251213073729,-1.2086229255676268,-10.182539660644531
8060,-0.896329246520996,-1.605012937927246,-9.480888936614988
8070,-0.8545802820067853,-1.892017715808004,-8.93246653431356
8080,-0.8976759118895977,-2.1051017366271463,-8.681823548015954
8090,-1.0902595809936522,-2.090138049316406,-8.87515591659546
8100,-1.5746365043640136,-1.7779940809387713,-9.366715444946287
8110,-1.6680103691101071,-1.4513351188659667,-10.037091909790039
8120,-1.4800655387878416,-1.0868179161071776,-10.78408282775879
8130,-1.2177508193969726,-0.7963712541442365,-11.565789085277913
8140,-0.817769504547119,-0.7053916641235352,-11.968314823913573
8150,-0.5168482833862306,-0.7526771469116211,-11.880776825714111
8160,-0.3705027069091797,-0.9325415466308594,-11.511321582031249
8170,-0.284760359954834,-1.178096927465871,-11.080215645599363
8180,-0.2898479654174298,-1.435772735009715,-10.646415647777916
8190,-0.39743747558593756,-1.7120038976807144,-10.280253015899657
8200,-0.3817255271911621,-1.9921254188537598,-9.996540119171142
8210,-0.7867944475036114,-1.9463363121032713,-9.774328277587891
8220,-1.2770072374206034,-1.6617255897521974,-9.77492682800293
8230,-1.2961609237670897,-1.4538789581298828,-9.937582903289794
8240,-0.822258632659912,-1.3711293632507324,-10.25840592575073
8250,-0.4080617454528809,-1.237203707885742,-10.67454810180664
8260,-0.23567922592163082,-1.0492588775634766,-11.09517940597534
8270,-0.3920505218505859,-0.7652467056274415,-11.435156041717528
8280,-0.7314285706451161,-0.5553050744872541,-11.580603208050132
8290,-0.6069301208496093,-0.6380547424316405,-11.604396171569825
8300,-0.4646247962066904,-0.6815992851257324,-11.44069263305664
8310,-0.472256204400584,-0.5684732566833497,-11.08934295490682
8320,-0.7622538804870098,-0.5942108514647928,-10.576983799633382
8330,-0.8280944992065429,-0.9048585899353023,-10.066271242523193
8340,-0.7359177352905273,-1.196502279663086,-9.601347207641602
8350,-0.6675333503723144,-1.386093123626709,-9.227103560638426
8360,-0.5337574056763202,-1.5671546241760252,-9.148543818664551
8370,-0.5651812294006349,-1.512536898803711,-9.376741164398192
8380,-0.7844003189086913,-1.1888709080018103,-9.67317325744629
8390,-0.81073653717041,-0.821061531829834,-9.947159709930418
8400,-0.5146036462645978,-0.5995977321349084,-10.046069581493734
8410,-0.26470892105102534,-0.4821322131834924,-9.884311916351319
8420,-0.591667012200877,-0.250642840167135,-9.62079951160848
8430,-1.0383352594237774,-0.19572583958730094,-9.235033769115805
8440,-0.9914987625122069,-0.3841197288513182,-8.923189587402346
8450,-0.7194575258117168,-0.49410322148427366,-8.733298883709312
8460,-0.38172552719116215,-0.5155015449523925,-8.705766149139405
8470,-0.3648164779663085,-0.478540910693258,-8.853158604320882
8480,-0.24001864336542778,-0.43454760131835923,-9.12445157993734
8490,0.039803675665333826,-0.31857838533930505,-9.21363559177816
8500,0.21203648452758783,-0.22161329116821282,-9.21917276763916
8510,0.1408089851379395,-0.17073643282465623,-9.248202462768553
8520,-0.20440496673583985,-0.13362638015747086,-9.225457546997069
8530,-0.22714988250732426,-0.2784755805969237,-9.11741919708252
8540,0.05042787246704106,-0.4056675437927245,-9.089436965179443
8550,-0.08843575075678534,-0.2534860277038067,-8.972719049724937
8560,-0.2440589317321778,-0.23014256151728352,-8.84178673095703
8570,-0.27144254015497865,-0.3684077073913069,-8.77848944004476
8580,-0.1475426773071289,-0.5737105728149413,-8.607603881072999
8590,0.06988076095581053,-0.7203554244995117,-8.50884306259155
8600,0.11177929000854492,-0.7591115638732908,-8.43357534790039
8610,-0.030825273309275425,-0.6248865602355449,-8.404395430645346
8620,-0.11073182678222648,-0.4405331054687498,-8.627655319976805
8630,0.08304887008666995,-0.41793782730102547,-8.918550821685791
8640,0.042048166656494135,-0.26770167312622073,-9.083002548217774
8650,-0.6416460449218749,-0.08843582382202142,-9.137320998382567
8660,-0.7484872940063476,-0.2551321144104004,-9.179069889831545
8670,-0.2837128967285157,-0.4593874435424805,-9.10993731689453
8680,-0.06599018325805661,-0.5047276374816895,-8.831611373901367
8690,-0.11133030413202938,-0.5445312400817871,-8.821884345135091
8700,-0.2983773088317364,-0.5603928260803223,-9.005639322552085
8710,-0.36825806978754694,-0.5437829789977521,-9.290848595318197
8720,-0.3494038047790527,-0.5389946487426758,-9.380631742095947
8730,-0.348655616760254,-0.5086181421142071,-9.427318674468992
8740,-0.4911106155395507,-0.48138417129516603,-9.529072245025635
8750,-0.6370072792053223,-0.6780079826354981,-9.452008879089355
8760,-0.8162731285095214,-0.9859620981078594,-9.175179312133789
8770,-0.8523357179503886,-1.1659761354308575,-8.689903978618979
8780,-0.9322422714233398,-1.1110591348510235,-8.513930741119385
8790,-0.8274958757262677,-1.0708066194396466,-8.658928994640707
8800,-0.5805938295226544,-1.033995695849508,-9.0970678984493
8810,-0.7255926675658673,-0.7621043159484863,-9.660753336334231
8820,-0.9093477180480957,-0.3586813362121582,-10.19690487060547
8830,-0.8949825080871581,-0.0412999786376953,-10.640131452941894
8840,-0.7006032608032225,0.04923077163696288,-10.754155307006837
8850,-0.23777422543950377,-0.08798691101074219,-10.685770922088622
8860,-0.02738368148803716,-0.4161421760559082,-10.424204390716554
8870,-0.6364087287902832,-0.5820902786254882,-9.91468834991455
8880,-1.1643301948547364,-0.7000047103881835,-9.527875144195557
8890,-1.1855786615233868,-0.9534907380919903,-9.421482223400474
8900,-1.2993032403808087,-1.0516530061583966,-9.500191602978113
8910,-1.2373533454895018,-1.0003273811340332,-9.781660520172117
8920,-1.1757025796752423,-0.8568248825957998,-10.115351792034506
8930,-1.1222820281982422,-0.6848913124084473,-10.557082582855225
8940,-0.9739911628723144,-0.5524620330810546,-11.074679054260253
8950,-0.9605237785339353,-0.4471171600341797,-11.385775632476806
8960,-0.9353846611022949,-0.3697545188903808,-11.44129118347168
8970,-1.152059838281199,-0.3564367356231436,-11.312602259716392
8980,-1.3895347885131835,-0.4233247810363769,-11.114482656860352
8990,-1.496376037597656,-0.4004302276611328,-11.015572200775146
9000,-1.883937431335449,-0.24645309685971592,-11.060164206695555
9010,-2.272995274176076,-0.1520318054199219,-11.240327881622312
9020,-2.2946926536560053,-0.13213004065249112,-11.372308248138427
9030,-2.155380044555664,-0.07526771469116222,-11.290157203674315
9040,-2.0938789894104,0.06838438491821297,-11.062259133148192
9050,-2.124405133642629,0.142305324642919,-10.887632049560546
9060,-2.0024503404479472,0.0008978986877947737,-10.786326807293293
9070,-2.024297503662109,-0.08319850769042969,-10.629058270263673
9080,-2.1478980913024395,-0.05327098693847654,-10.330830525970459
9090,-1.977011947808787,-0.17612342309262613,-10.267084322246909
9100,-1.7480664871215819,-0.24540563363339746,-10.168473725891115
9110,-1.556380716705322,-0.11671736746523537,-10.104279193878174
9120,-1.4814122772216796,0.10564418478701254,-10.192864655303953
9130,-1.5882535263061524,0.2974795197417959,-10.243891078186035
9140,-1.4241010749816894,0.3494038413116708,-10.436624311828611
9150,-0.9374795875549315,0.4180875379700212,-10.539574983215331
9160,-1.0105027381896972,0.6156091018676758,-10.388889916229248
9170,-1.3569137908935547,0.6563105300903319,-10.217854135131835
9180,-1.2389993591308595,0.4329016607422381,-10.031854009136557
9190,-1.3491326354980466,0.3073557111877948,-9.76759400089681
9200,-1.340453581414744,0.07332246237490325,-9.619752048382164
9210,-1.3986626458099112,-0.22415705736689273,-9.500640515789389
9220,-1.4847042314391583,-0.4016272554259747,-9.35474385212362
9230,-1.2315174789428711,-0.5180453842163086,-9.247304637145996
9240,-1.043273373413086,-0.6024409927368164,-9.198822053527833
9250,-1.2963105613708494,-0.5602431884765625,-9.194033650207519
9260,-1.4811129654815423,-0.5582978996276856,-9.35294878540039
9270,-1.4457984909942372,-0.5262754524230957,-9.557204114532471
9280,-1.3786112434387205,-0.35703532257080073,-9.687538467407226
9290,-1.2520178306579588,-0.18599954147338865,-9.876081848144532
9300,-1.2665327147552743,-0.0851437965393067,-9.983970560455319
9310,-1.3364135122437029,-0.16684592819213867,-9.942820219421387
9320,-1.383399610226415,-0.30810382614135745,-9.764452195739745
9330,-1.0733505317687988,-0.29284079055786133,-9.540145427703857
9340,-0.9463082061767576,-0.19767127456665046,-9.26331586074829
9350,-1.462557939147949,-0.062099605560302695,-9.298331060028076
9360,-1.857750814144872,-0.03546411209106448,-9.443329898071289
9370,-1.9183541167328133,-0.003591302490234316,-9.551517885589599
9380,-2.207453894131444,0.20844518203735352,-9.729736271667477
9390,-2.544288213259913,0.34506427773740134,-9.889249957275387
9400,-2.259378142636083,0.2442085693359375,-9.871443082427975
9410,-1.6995838669707997,-0.051774610900878926,-9.8817680770874
9420,-1.3880384124755858,-0.3265092514038086,-9.751134449005127
9430,-1.3507786856720223,-0.4837783729553222,-9.426271211242675
9440,-1.4938321983337401,-0.5855319435119628,-9.089436965179443
9450,-1.560271294403076,-0.7155670211791991,-8.942792113494875
9460,-1.6895581475188952,-0.7885901718139647,-8.940547549438474
9470,-1.89097036217954,-0.8372223565032704,-9.009680122375487
9480,-1.8843863441467286,-0.8053495469024403,-9.134477299389243
9490,-1.6772878274779766,-0.777068112857081,-9.370007472229004
9500,-1.6825252532074226,-0.5023334358215331,-9.634267480468749
9510,-1.7030254953246562,-0.06599018325805661,-9.820865572357176
9520,-1.7136498382568361,-0.022595278167724664,-9.829843828582765
9530,-1.8179472115447743,-0.15831654824521385,-9.9535935423702
9540,-1.8635866441588846,-0.2250549560546875,-9.906308644104003
9550,-1.6243162253448737,-0.3705027069091797,-9.836427883148193
9560,-1.422455061340332,-0.4116530479431152,-9.742006555175783
9570,-1.682824455349706,-0.3468599655151367,-9.620949733734127
9580,-1.8845360182831061,-0.4436754951477051,-9.52592985534668
9590,-1.815702720553614,-0.6464344847748056,-9.541342528533935
9600,-1.8376993387084453,-0.6895300781249999,-9.610026188659667
9610,-1.9191023778168486,-0.6438906089782714,-9.60089829483032
9620,-1.9672855766296387,-0.5879261817047372,-9.633369654846192
9630,-2.074126789181493,-0.5505167076995596,-9.627982116588951
9640,-2.25488901452329,-0.5608417388916015,-9.501688563537597
9650,-1.9726725668976082,-0.6886322525024414,-9.381230292510985
9660,-1.4164695571899415,-0.8786719362121076,-9.382277171215415
9670,-0.9506476966857911,-0.9811737678527831,-9.427617949676513
9680,-1.1221323905944822,-0.7969698410918936,-9.459939672088622
9690,-1.4686931174347175,-0.7151181083679198,-9.507973342895506
9700,-1.3938742059569806,-0.836923081295751,-9.778667183575035
9710,-1.223885997683741,-0.8040028450012207,-9.929053559875486
9720,-1.6135423178741708,-0.5629366288116202,-9.789890588378904
9730,-1.9250877723693847,-0.5404910247802734,-9.701005851745606
9740,-1.7093103477478027,-0.6684311759948729,-9.911845235443115
9750,-1.6331447709014637,-0.6206967803955078,-10.01763843677938
9760,-1.5065514311859383,-0.5659294539520517,-10.078990438842773
9770,-1.2814964385986327,-0.6317698900084942,-10.231320934948325
9780,-1.2551602203369139,-0.7422025146484375,-10.254964260864257
9790,-1.3154641381194814,-0.8765770828247069,-10.10113680419922
9800,-1.1824363083770497,-1.0564414460113272,-9.993546782574057
9810,-0.9591770035674794,-1.2144587555816397,-9.860219677624107
9820,-0.6922235549926756,-1.2457330513000489,-9.683947164916992
9830,-0.7630021415710448,-1.1991957565307616,-9.609278000640868
9840,-1.2527660186767577,-1.0767921601226553,-9.636960957336425
9850,-1.5863082191909663,-0.9189245246887208,-9.905111543273925
9860,-1.4359224091460927,-0.7203554610321297,-10.286088882446286
9870,-1.3706804687057619,-0.4305073860168457,-10.441562352752685
9880,-1.155651195570361,-0.3398269981384277,-10.77704986038208
9890,-0.7567173439468257,-0.3884591828277334,-10.829572074779866
9900,-0.4335001198257319,-0.5562029366424307,-10.532541431316732
9910,-0.283413603254687,-0.773027824490331,-9.992200628662106
9920,-0.4082113830566405,-0.9867103591918944,-9.487622628784179
9930,-0.6189011108840815,-1.2042833985259755,-9.06579363926351
9940,-0.5267243652343749,-1.34584064474795,-8.838494703674316
9950,-0.4291606293166987,-1.2666822792937977,-8.818293042644855
9960,-0.7736263749053702,-0.9373299134185538,-8.889820401763915
9970,-0.9683049521957523,-0.7029974624633789,-9.192836549377441
9980,-0.7540238853454588,-0.5752069123199208,-9.61331821594238
9990,-0.5981015204940923,-0.3902548706054687,-9.746495683288574
10000,-0.3927987098693847,-0.39175124664306643,-9.65820949707031
10010,-0.2018611274719238,-0.5300163925170898,-9.520243626403808
10020,-0.024989479827880884,-0.7224503874847664,-9.290849179840087
10030,-0.03321954803466798,-0.8860042518615722,-9.02643953399658
10040,-0.41748891448974607,-0.9277531433105468,-8.79090994567871
10050,-0.7894880339691415,-0.7820061172485351,-8.608352069091797
10060,-0.9775824653625487,-0.6070797584533691,-8.82861862182617
10070,-1.145924769592285,-0.5274725532531738,-9.105747463989259
10080,-1.273864957339503,-0.4186860153198243,-9.26930136489868
10090,-0.9873088730743155,-0.33414073266293853,-9.619602410778404
10100,-0.6438905724456533,-0.1650502404144034,-10.027215243420006
10110,-0.5074210960830561,-0.011222783749364418,-10.175955021557211
10120,-0.27323826446533206,-0.02618658065795898,-10.099041877746581
10130,0.1535281814575195,-0.1674444786071777,-9.955240140533448
10140,0.026635493469238325,-0.2826654335021973,-9.654318919372558
10150,-0.6127659873962401,-0.3149871559143067,-9.309254605102538
10160,-0.9683049339294434,-0.4396352798461914,-9.16156229019165
10170,-1.2913725204467772,-0.4617816086700185,-9.322422129711505
10180,-1.869422656835988,-0.2501940734863281,-9.477746546936034
10190,-2.002151101773046,-0.18390457848813388,-9.779116096386312
10200,-1.515679325015284,-0.21308391122128817,-10.321851685222983
10210,-0.922515827178955,-0.1066916114807129,-10.853365038299561
10220,-0.5343558830261229,-0.05626370248105378,-11.090540055736898
10230,-0.3938462096283212,-0.1485901405334473,-11.151742420196532
10240,-0.30615853729248044,-0.24884733505249018,-10.848875910186766
10250,-0.2027589530944824,-0.34835637808535247,-10.282796855163575
10260,-0.5672761558532714,-0.3589806479522958,-9.907805020141604
10270,-1.0541969184875488,-0.4520552009582519,-9.561543605041503
10280,-1.2312181672027334,-0.6120177263122051,-9.221416747173667
10290,-0.8167220047881827,-0.8087912483215332,-9.02075272053182
10300,0.015861585998535155,-0.9751882271697745,-9.057713793182373
10310,0.393846173095703,-0.9213187263488769,-9.170091633605956
10320,-0.025737667846679635,-0.769286920928955,-9.255833980560302
10330,-0.541987364285253,-0.6851905876159667,-9.37823754043579
10340,-0.8400655075073242,-0.6479308242797851,-9.446621925354004
10350,-0.8026561065673827,-0.7854477821350097,-9.367164357757567
10360,-0.4014776908874512,-0.9644143562316894,-9.458892208862304
10370,-0.2373252395629883,-0.9840168823242188,-9.41085853805542
10380,-0.2064998201232403,-0.9352349869659171,-9.317035175976155
10390,-0.8291419624328612,-0.6504746635437011,-9.168445619964599
10400,-1.310077220916748,-0.578349301998876,-8.952817832946776
10410,-0.7119756456237286,-0.7787141264984383,-9.08464856185913
10420,-0.20305815523676574,-0.8239046463012696,-9.240720582580567
10430,-0.1975215638976544,-0.7282861992324702,-9.403376657867431
10440,-0.6015431671142578,-0.5677250869308597,-9.715819974517823
10450,-1.184231996154785,-0.37409400939941395,-9.907505744934081
10460,-1.0182837474547326,-0.42766425327910096,-10.099190930828453
10470,-0.8512883277893065,-0.49096097793579085,-10.075249498748777
10480,-0.9440635690551249,-0.6115688500335439,-10.034547486004232
10490,-1.350180098724365,-0.751480046081543,-9.90211879119873
10500,-1.3462895940918473,-1.005115811853809,-9.76175871887207
10510,-0.8053495103698223,-1.2693757744277827,-9.95868122089803
10520,-0.5431845016479492,-1.3495815757087897,-10.155904167175292
10530,-0.4203320289611816,-1.3132195649299303,-10.334121968731283
10540,-0.2612672561645507,-1.3435960989578628,-10.512640214538575
10550,-0.15891506212763484,-1.2888286537833975,-10.483460297283528
10560,-0.8083423355102538,-0.8906430084449704,-10.289680184936524
10570,-1.4821604652404785,-0.7628525678993667,-10.19675523300171
10580,-1.472882860742137,-1.0875660675933583,-10.148870615276694
10590,-0.9880570976257324,-1.2982558502197263,-9.981725996398925
10600,-0.30630817489624024,-1.2696750496353024,-10.017190108489991
10610,0.04548986807558686,-1.1305121329376475,-10.188375527191162
10620,-0.024839805691503014,-1.031302337712841,-10.353724494823814
10630,-0.07721296700742097,-0.985064363816846,-10.533588894543051
10640,0.06613982086181647,-1.1185411155037115,-10.57264489364624
10650,0.1693897674560546,-1.2521674682617185,-10.6616792678833
10660,-0.07422025146484373,-1.1498153290237298,-10.683077445220944
10670,-0.06778583450317388,-1.123628784898389,-10.857554891204835
10680,0.3081038626739755,-1.1914146376678718,-10.958110776409507
10690,0.3534440200805664,-1.1423334488357415,-10.781838263702392
10700,0.025288791568018443,-0.9733926124572753,-10.47119001377523
10710,-0.13422493057250973,-0.7363666481018065,-10.277709176635742
10720,-0.21667517717890444,-0.4879682075942865,-10.159195609936116
10730,-0.3312976547241212,-0.3055599868774413,-10.320954444122313
10740,-0.4474164352416993,-0.1071405242919922,-10.668412960052489
10750,-0.5099649536132812,0.10788869404448198,-10.848277359771727
10760,-0.8378209069183096,0.31797990798950204,-11.043404210552572
10770,-0.9326911842346192,0.34326866302490233,-11.251401064300536
10780,-0.6471826362609864,0.14215574183808638,-11.142614526367188
10790,-0.31977555923461914,-0.1366191139663569,-11.047744285583494
10800,-0.4643254844665528,-0.19991583862304688,-10.78363391494751
10810,-0.526125814819336,-0.22131401596069342,-10.505607247161864
10820,-0.44726679763793953,-0.3992331085647456,-10.42644895477295
10830,-0.4557961410522462,-0.4795885200500488,-10.520421369934082
10840,-0.36586394119262694,-0.4779425246750004,-10.44500401763916
10850,-0.23657697847895326,-0.4834790612151846,-10.201094138988852
10860,-0.4869207626342774,-0.4306570236206054,-9.942969857025144
10870,-0.8174702293395995,-0.5116109672546385,-9.8702459815979
10880,-0.9347861106872557,-0.6100725105285643,-9.9721491897583
10890,-0.9745897132873534,-0.35269583206176747,-9.979481432342528
10900,-0.8854056283812969,-0.036960451596044,-9.931746452221272
10910,-0.8050503812927752,0.09636661682128911,-10.001627797698973
10920,-0.7671919214110822,0.05895728894658386,-10.15829778431356
10930,-0.8059480607848615,-0.021098865597508842,-10.242543755230308
10940,-0.7971195152282715,-0.14125793448183682,-10.148272649383546
10950,-0.8459013009887189,-0.2144306131225079,-9.811288181194664
10960,-1.299901863861084,-0.17342994622495034,-9.288305340576171
10970,-1.6514005950927735,-0.2807201811859384,-8.743923738098147
10980,-1.8128596426147967,-0.5117606048583985,-8.309675411987303
10990,-1.4921861116271464,-0.8083422624450176,-8.067112271770835
11000,-1.2930184610228985,-0.8713396936278789,-7.996034409984945
11010,-1.0405797504149377,-0.7466916062286122,-8.106018048748373
11020,-0.9955389778137207,-0.48751927651669824,-8.352321544536947
11030,-1.1174936248779297,-0.2998737579345704,-8.659079216766354
11040,-1.232265740026906,-0.20620061798095699,-9.037662354278567
11050,-1.4640541690550744,-0.011522058956883796,-9.373298914989828
11060,-1.2544119592528788,0.12075754623413076,-9.531465862163902
11070,-0.7806593788146973,0.12449848632812499,-9.393650213623044
11080,-0.5168483564514667,0.04115037756655365,-9.035717065429687
11090,-0.5226840768676252,-0.11956048193667079,-8.655039001464843
11100,-1.1794436658997087,-0.09277535086367289,-8.42115542678833
11110,-1.9232920480590312,-0.060603192990086985,-8.211213868713378
11120,-2.1839608999390157,-0.22864625854492188,-8.123526232910155
11130,-1.7482160516601057,-0.4912602531433104,-8.216002272033691
11140,-1.2077250999450682,-0.5225344757964834,-8.400954350280761
11150,-1.0404302589416503,-0.26934765023496,-8.768015392303466
11160,-1.0601823495727032,-0.1930324357848614,-8.923189002880454
11170,-0.8251017471313477,-0.3778349129607901,-8.90702872619629
11180,-0.584185205078125,-0.5529109458923339,-8.794800523376463
11190,-0.44756607284545896,-0.7442974045684561,-8.525602474212647
11200,-0.655711979675293,-0.8921393570831044,-8.302941719818115
11210,-0.962768342590332,-0.9666588837554677,-8.301594981384277
11220,-1.548300286102295,-0.9404723761627449,-8.339602932739256
11230,-1.923441685662791,-1.0723030685424804,-8.312218666729331
11240,-1.5011643678527324,-1.3130700460571796,-8.495226040649413
11250,-0.9900023864746093,-1.3115735604217276,-8.560467451366781
11260,-0.7281365068297834,-1.2226888603210448,-8.73344852131307
11270,-0.815973853302002,-1.1285668075561524,-9.216778565979002
11280,-0.770633659362793,-1.093701245880127,-9.68409680252075
11290,-0.7315781717162579,-0.9539396874358876,-10.066869208416342
11300,-0.937180312347412,-0.7695861961364745,-10.364050074005126
11310,-1.1941080780029296,-0.6781575837066396,-10.755800736126304
11320,-1.2547112344603986,-0.7246948784759266,-11.09458027103841
11330,-1.5725415779113767,-0.7915829238891601,-11.255890192413332
11340,-2.057666689300537,-0.8336310905456542,-11.196035150909422
11350,-1.7938555938720702,-1.0678139038970693,-11.047594647979736
11360,-1.0919055946350096,-1.2975076987335457,-10.905887837219238
11370,-0.7948748050414025,-1.3753191430907696,-10.738143498882653
11380,-0.7770681493896991,-1.3890858757019042,-10.466402194976807
11390,-0.8044517578124999,-1.4279917257446795,-10.307487059783936
11400,-0.8300398611206562,-1.3769652297973631,-10.31676459121704
11410,-0.7154173835754395,-1.2907739700317382,-10.184634587097168
11420,-0.6607996582031249,-1.1839327209472654,-10.092158547973632
11430,-1.369932262420654,-0.7876923461914063,-10.077194203075766
11440,-1.820042101464793,-0.7040448526244611,-10.026467055401206
11450,-1.1420341918945311,-0.9751881906371562,-10.22054702747762
11460,-0.1619078872680666,-0.9572318243164568,-10.561571710968016
11470,0.2691981222290545,-0.5811923799376935,-10.728865967449545
11480,0.024091654205322444,-0.2597708801269532,-10.883142921447753
11490,-0.7402572257995604,-0.04489128112792973,-11.048642111206053
11500,-1.2009914077758788,-0.06419453201293945,-11.039663854980468
11510,-1.3528735025268046,-0.16789331835322086,-10.96125316608846
11520,-1.4232032493591307,-0.23732523956298834,-10.6862198348999
11530,-1.3474866218566892,-0.3833715408325195,-10.42704750518799
11540,-1.1249755050659176,-0.5310638557434082,-10.275913525390623
11550,-0.9368809640746564,-0.5389945756774396,-10.069413047680259
11560,-1.025915411376953,-0.4391863670349121,-9.898078575897218
11570,-0.8873509172301739,-0.47614670903310186,-10.066270658001303
11580,-0.6492775627136229,-0.4683657728333026,-10.332476539611815
11590,-0.5687725318908694,-0.2908954286437482,-10.387393540191653
11600,-0.6162076522827149,-0.12629413757324215,-10.29252329940796
11610,-0.7625532287597656,-0.058358665466308524,-10.147374823760986
11620,-1.1430816551208496,-0.007182604980468743,-9.896432562255859
11630,-1.3320740217346698,-0.0781108291625976,-9.633818567657467
11640,-1.0226233840942383,-0.2826654335021973,-9.459490759277342
11650,-0.7782651771545409,-0.35464112091064465,-9.376292251586914
11660,-1.0395323602538553,-0.25528167894892395,-9.254935570415855
11670,-1.1001356628417969,-0.2748842781066895,-9.238027105712892
11680,-0.9003694618225098,-0.3045125236511231,-9.279775997161863
11690,-0.6994060869079082,-0.3200747613769024,-9.252541368755697
11700,-0.7404068634033202,-0.383221976293996,-9.133280783081055
11710,-0.9862614463806152,-0.4022258058410138,-9.047837711334228
11720,-1.016488242340088,-0.38756139373779297,-9.102305799102783
11730,-0.8520365888733417,-0.3803787887573243,-9.255684342956544
11740,-0.6868364551268518,-0.307056326382421,-9.49929377735555
11750,-0.6675334234375505,-0.14709376449584954,-9.734225399780273
11760,-0.7172130348205566,0.029927484219335,-9.908702845764157
11770,-0.6245873580932617,0.08454524612426761,-9.836577520751952
11780,-0.3517979333739726,-0.07466912774350493,-9.445124964794518
11790,-0.11836334457397468,-0.24854809637758885,-9.077765232086183
11800,-0.10474632263183581,-0.38666360464785243,-8.768913217926025
11810,-0.3037643356323242,-0.4869207626342773,-8.508094874572754
11820,-0.7353192579407245,-0.5307645440032706,-8.4911858253479
11830,-1.1773486663818358,-0.4803367446014658,-8.637830677032468
11840,-1.181688083825633,-0.41419688720703135,-9.022698009380697
11850,-1.1430816551208496,-0.1888426559448242,-9.415946216583249
11860,-1.1079167451720684,0.09157821350097656,-9.608529812622072
11870,-0.6410474214415995,0.10938512488100677,-9.661052027019858
11880,-0.3205237472534178,0.07661445312500004,-9.578452654266357
11890,-0.28700485094599415,0.01631053534243254,-9.510366960033775
11900,-0.44681788482666007,-0.10983392809443177,-9.404872449383138
11910,-0.8485948509216308,-0.19797054977416995,-9.11771847229004
11920,-0.8629600608825682,-0.33892913598325103,-8.916156620025633
11930,-0.6382043800354006,-0.4750993919372558,-8.92992327957153
11940,-0.9271545928955077,-0.4002806265899912,-9.073874654388426
11950,-1.3925275405883788,-0.35449148330688485,-9.193734375
11960,-1.2981061395507305,-0.406715007019043,-9.400084630584717
11970,-0.86041607548818,-0.3248632012298331,-9.732279526409506
11980,-0.5071217660766094,-0.147393003170751,-10.039635164532067
11990,-0.46911381472162905,-0.0573112022399902,-10.31077908706665
12000,-0.6419453201293945,-0.04758475799560541,-10.465803644561765
12010,-0.8767267204284669,-0.017956475918553816,-10.43228482131958
12020,-1.0278607002258298,-0.03172317199707031,-10.325443572235105
12030,-1.1408370910644532,-0.12330138549804687,-10.313023651123046
12040,-1.3096283081054687,-0.1904887061187997,-10.175057780456543
12050,-1.2394482719421387,-0.2225111167907714,-9.909151758575439
12060,-1.3470377821106463,-0.17552490921020508,-9.706392805480954
12070,-1.288529479040578,-0.3299509162902832,-9.632471829223633
12080,-0.8523357179503888,-0.5859808197906239,-9.792583480724693
12090,-0.5585972479004412,-0.6612485710144043,-10.06163247680664
12100,-0.460883746514842,-0.6111199372222645,-10.1581481467098
12110,-0.4899135877747089,-0.5434837768554686,-10.15829836883545
12120,-0.5524620330810546,-0.4973954314300789,-10.173112491607665
12130,-0.6449379991393536,-0.48377833642270407,-10.205134354290363
12140,-1.213560893426463,-0.3838204536437988,-10.19600704498291
12150,-2.104353621673584,-0.1949777976989746,-10.13151323776245
12160,-2.15133982925415,-0.27353753967285155,-10.176105243682859
12170,-1.6452653802733868,-0.41524438696596766,-10.15246250228882
12180,-1.1481693336486816,-0.4824316345214844,-10.039785386657714
12190,-1.0610801751952617,-0.4740518191130832,-9.943867098125816
12200,-1.299901863861084,-0.4602851960998028,-9.788992762756347
12210,-1.2029366966247559,-0.5481225425720214,-9.6701799208492
12220,-0.8580219468932598,-0.6452372743468731,-9.515155363354086
12230,-0.4887163408141582,-0.6862380873749032,-9.380332466888428
12240,-0.5216366867065427,-0.565031628329493,-9.376292251586914
12250,-1.2901753465514627,-0.2014121781280264,-9.529521157836912
12260,-1.5713444770812988,-0.018255787658691403,-9.707440268707275
12270,-1.2451345008850097,0.026934768676757814,-10.007762939453125
12280,-1.026364251122996,0.24675242686616256,-10.357017106628417
12290,-1.1716625105042011,0.5307645805358887,-10.536881506347653
12300,-1.4677951822143047,0.6866870001861826,-10.768968845257163
12310,-1.402403476306051,0.5807435584579594,-10.988936122784017
12320,-1.0458171396117655,0.41270054770205167,-10.888080377849937
12330,-0.8806172981262209,0.314089330291748,-10.382455499267579
12340,-1.05973350982666,0.15337850732114167,-9.887304668426511
12350,-1.6891092712402345,-0.012569540449511307,-9.605387422943116
12360,-2.18336227645874,-0.16834230422973634,-9.462932424163817
12370,-2.060659368310496,-0.32710780181884747,-9.369857834625243
12380,-1.8701707717895506,-0.3447650390624999,-9.49929436187744
12390,-1.8001403732299806,-0.1283890640258789,-9.886257205200197
12400,-1.9677344894409179,0.21592704395903278,-10.086322681427001
12410,-2.0368669893126934,0.34835633241957986,-10.244638681682943
12420,-1.7838298013549299,0.2973299278038088,-10.465953282165525
12430,-1.5794249076843263,0.262015416783886,-10.556334394836425
12440,-1.3934253662109375,0.2937386070472653,-10.36105732192993
12450,-1.2451345008850097,0.24316110610961916,-10.141389319610596
12460,-1.1715128729004411,0.15068508525239302,-9.922768780517577
12470,-1.3838484865050762,0.13317752214511858,-9.505428919109702
12480,-2.0720318992614746,0.11896193152163181,-9.23383666828573
12490,-2.512116091918945,-0.05596442727353418,-9.10440014103353
12500,-2.5308207923889157,-0.2069487877334468,-9.200318429565431
12510,-2.418293241296336,-0.15397705773618078,-9.343969944652915
12520,-2.508375151824951,0.040701391690038224,-9.454103805541992
12530,-2.4510639495849604,0.12060790863037107,-9.498246898651123
12540,-2.1624129388671367,-0.030675727037061007,-9.523685291290285
12550,-1.972073979949951,-0.15771803436279297,-9.63426748046875
12560,-1.9859902770996092,-0.10235213923798878,-9.43569838027954
12570,-1.9726726034302264,-0.10474632263183592,-9.209147048187255
12580,-1.995118243994191,-0.1132756295135244,-9.159617001342774
12590,-1.9861399147033691,-0.1765724089691416,-9.214683639526365
12600,-1.7503110511779782,-0.2530371879577637,-9.269451002502441
12610,-1.5875053382873534,-0.19288287124633796,-9.178022426605223
12620,-1.9647417373657223,-0.008379724076855888,-9.062202921295166
12630,-2.4184429519653317,0.01930321435239163,-9.146598529815675
12640,-2.4025812198363243,-0.08753799819946281,-9.417592230224608
12650,-2.4387935930114235,0.034865543409716315,-9.4864255279541
12660,-2.4046762924194334,0.1631049880981446,-9.545382743835448
12670,-1.877652651977539,0.1267430686508305,-9.740510179138182
12680,-1.634790748010203,0.19333178405761722,-9.76834218891561
12690,-1.6368856744628397,0.2271499190399423,-9.811138543590904
12700,-1.6546926223754883,0.14679448928833008,-9.9974379447937
12710,-1.5041572660584004,-0.0206499710525386,-9.99160207824707
12720,-1.4748281495910138,0.02603694305419918,-9.911545375713708
12730,-1.6011223602294922,0.00852932514799759,-9.916334363555906
12740,-1.6760908727783708,0.08738836059570321,-9.963320571136475
12750,-1.9717747778076677,0.28865091938627885,-9.75996306762695
12760,-1.8930652520995586,0.08918404837343841,-9.68514368122518
12770,-1.5494973138671368,-0.19677341241147367,-9.65985492618978
12780,-1.476623873901367,-0.2965817306518555,-9.494805233764646
12790,-1.591695191192627,-0.36885665673520407,-9.350554583740236
12800,-1.613392716803029,-0.5346551582336425,-9.263465498352051
12810,-1.511190160369873,-0.5982511398315429,-9.292644831085205
12820,-1.3691840744018553,-0.5674257934570313,-9.335291548156738
12830,-1.3944728294372557,-0.5117606413910164,-9.57590881500244
12840,-1.48994154757075,-0.4062660942077636,-9.87802713699341
12850,-1.2792518745422363,-0.34820670394897457,-10.012551342773437
12860,-1.2765583246093242,-0.3257610633850097,-10.124779545593261
12870,-1.9189526306152342,-0.35060086907651283,-9.970801866802573
12880,-2.168548080621287,-0.503081623840332,-9.851990193939208
12890,-1.791461392211914,-0.5746083984374999,-9.91947675323486
12900,-1.4043489112854002,-0.5163993705749511,-10.07435167312622
12910,-1.3058872949462383,-0.4212298545837402,-10.349385588836668
12920,-1.2208932090759277,-0.3491045295715332,-10.567856490325926
12930,-1.1385925270080566,-0.2775777549743652,-10.766575228118896
12940,-1.3153145005157216,-0.2314893730163574,-10.902595809936523
12950,-1.7905634935241193,-0.19198500909116117,-10.772560147747399
12960,-2.2022166145324706,-0.2922422401428222,-10.661230355072021
12970,-1.9023429296631365,-0.5737105728149414,-10.659733979034424
12980,-1.3723264275481923,-0.7056909027984365,-10.387243318066
12990,-1.3064858636275862,-0.8708908173492177,-10.13151265324056
13000,-1.1985971878494135,-0.9258078179290516,-9.932943553051352
13010,-1.0287585441146976,-0.7969699141571298,-9.624840311431885
13020,-1.1357494034034668,-0.6857891380310057,-9.615562779998779
13030,-1.0200795539634766,-0.6510732139587401,-9.858125335693359
13040,-0.9493009719516848,-0.561141014099121,-9.895684374237058
13050,-1.031003078488342,-0.4309562988281249,-9.841814836883543
13060,-1.1682207862522218,-0.2928407540252432,-9.81278455723226
13070,-1.2416928725311531,-0.2347814002990723,-9.607332711791992
13080,-0.8107365554367192,-0.2965817306518555,-9.550171147155762
13090,-0.21637595677031213,-0.2582745040893555,-9.688436293029785
13100,-0.19901803126679737,-0.0320224106719717,-9.764002698406575
13110,-0.5433341757843271,0.1840542526245117,-9.939527607616782
13120,-0.5743090866973624,0.3235164810623043,-10.324845021820067
13130,-0.49604863819731404,0.4861725928817875,-10.588506479644773
13140,-0.36885667500151326,0.6347627516815438,-10.727070900726318
13150,-0.6311714126586915,0.7695862144027836,-10.832116498565675
13160,-0.9914987077132797,0.7791629845107904,-10.808922669982909
13170,-0.6904278854812496,0.6340145088638178,-10.750564004516603
13180,-0.004638783982861772,0.5108627792358398,-10.554987656402588
13190,0.3805284080947749,0.4327519500732422,-10.308384885406493
13200,-0.007631517791748088,0.3654150466476567,-10.147523876842856
13210,-0.5217862877776847,0.22610245581362398,-9.891045608520509
13220,-0.541987382551562,0.09756371765136723,-9.775675016021726
13230,-0.5505167259658686,0.027982231903076193,-9.607781624603268
13240,-0.7206546631744131,-0.009726444244384735,-9.387814347076414
13250,-0.9518447792495599,0.0392050521850586,-9.438691132354737
13260,-1.131409958560206,0.08783730993960054,-9.46727191467285
13270,-0.8099883126189933,-0.0005985504150389787,-9.581744681549068
13280,-0.30526069340361284,-0.06479308242797849,-9.767295310211182
13290,0.12464810566557569,-0.19108718346860257,-9.932494640240073
13300,0.3610755378723144,-0.2998737944671884,-9.938929641723632
13310,0.2838625343322754,-0.3021183219909668,-9.765948571777344
13320,-0.061949967956542895,-0.3259107009887695,-9.529970070648194
13330,-0.5514145881210454,-0.4152443504333496,-9.19388342808187
13340,-0.7398083495208994,-0.6453869850158691,-8.844629845428464
13350,-0.7957727767944336,-0.8068459594726562,-8.660874868011474
13360,-0.46312836537016555,-0.9485527702331542,-8.75379981994629
13370,-0.008080448869336398,-0.9554360634734853,-9.018358518871663
13380,0.1491886909484863,-0.783203218078613,-9.167847069549559
13390,-0.07766191635131828,-0.564881917660497,-9.131335494232177
13400,-0.492906266784668,-0.4771942818572744,-9.419237659344077
13410,-0.20126257705688472,-0.6175543907165527,-9.603442134094239
13420,0.27398645248413067,-0.6444891593933104,-9.545532381439209
13430,0.41704000167846667,-0.5958569381713866,-9.307608591461179
13440,-0.0432452766197268,-0.5940612503936513,-9.008632074627279
13450,-0.516549008178711,-0.7193079247405751,-8.730755628967284
13460,-0.23986907882690428,-0.9186251764159648,-8.604011994060873
13470,-0.1590647819297854,-0.9364320877959951,-8.57468302372396
13480,-0.2361281387329101,-0.8177695045471189,-8.838045790863035
13490,-0.3935469252876472,-0.5582978996276855,-9.29444048233032
13500,-0.3791817016269779,-0.4207809052398427,-9.649829791259766
13510,0.060004679107666,-0.3646668403625488,-9.935487976837157
13520,0.34012626877937,-0.1946784859588369,-9.863062792095542
13530,0.0748188018798827,-0.1846527665069327,-9.609427053722737
13540,-0.5057750927164976,-0.23508063897397372,-9.395894193157552
13550,-0.5582979059067292,-0.3263595772674307,-9.213934866985678
13560,-0.1452981201005982,-0.4188356529235839,-9.1293902053833
13570,-0.0507271431079832,-0.4878185882568359,-8.89371097946167
13580,-0.2302922721862792,-0.4115034103393554,-8.875155916595457
13590,-0.5377975479125975,-0.2157773880889639,-9.092429132732748
13600,-0.7523778717041014,-0.16894083637846632,-9.269600055584311
13610,-0.5568015144569332,-0.2965817306518554,-9.434650917053222
13620,-0.0796071960670408,-0.3164835319519042,-9.418340418243407
13630,0.5054758163673337,-0.36317046432495104,-9.534459198760985
13640,1.0091559540900867,-0.506224013519287,-9.613018940734865
13650,1.2032359718322752,-0.5594949821914545,-9.590722937774656
13660,0.5786486502716318,-0.2947860611404291,-9.52548035801351
13670,-0.994641133924853,-0.008080394070409197,-9.445573877605797
13680,-1.351377163021825,-0.4014776908874511,-9.39858825454712
13690,-0.4824316345214843,-0.7722796912704594,-9.418639693450928
13700,-0.1065419738769531,-0.7802104477371088,-9.148394181060791
13710,-0.2998737762008792,-0.7522282432334962,-9.14375541534424
13720,-0.2133832229614257,-0.8590694740516598,-9.53146644668579
13730,-0.006284779357910192,-0.9136872085571288,-9.874884747314454
13740,0.21308396602021532,-0.8686462898254395,-10.15665235519409
13750,0.5538087897812016,-0.8306383293373043,-10.15081590412557
13760,0.6637923920120112,-0.7932289055644767,-10.169071691784263
13770,-0.1514332550048828,-0.6157587577377445,-10.207379502868651
13780,-0.6729202858413568,-0.750881481966772,-10.13854562061727
13790,-0.3160346191406249,-1.1011830849689197,-9.983521647644041
13800,0.2750339339767582,-1.3031939459427258,-9.849147079467773
13810,0.6543652412414551,-1.4027028930774657,-9.907505744934083
13820,0.5572504729339853,-1.2696750450687249,-10.091709050640462
13830,0.17881693649291988,-1.0015245184967294,-10.371980867004392
13840,0.029029695129394517,-0.826897384676733,-10.516830067443847
13850,0.2283469650710933,-0.7838017547939204,-10.599280387115478
13860,0.1876455551147461,-0.819415490789013,-10.670058973693846
13870,0.1458966819320805,-0.9234136710678227,-10.733505317687989
13880,-0.049829322052001884,-0.8415619155109626,-10.992228734588624
13890,-0.252139344068896,-0.6748655792568111,-11.221922456359863
13900,0.013168109130859307,-0.6537666908264159,-11.398794104003906
13910,0.4843768868377432,-0.6259340873939451,-11.334749209594722
13920,0.741304725558497,-0.4317044777137692,-10.924591953167319
13930,0.06239891730044034,-0.009127884696191108,-10.500668621715903
13940,-0.9760860893249511,0.34431612625122077,-10.295515466961264
13950,-1.1994949952056628,0.1943792655502446,-10.403105488586425
13960,-0.6916249680450185,-0.09277529606474569,-10.585064230236409
13970,-0.1858499038696289,-0.06778582537001931,-10.784232465362548
13980,-0.11237787695620205,0.043694189431006086,-10.930877317047118
13990,-0.3480570298125967,-0.010923554207617397,-10.96170266342163
14000,-0.8740332435607909,-0.028730401655565896,-10.817601651000976
14010,-1.1718120019774882,-0.05491698231352492,-10.678438094982504
14020,-0.8972270721435546,-0.23133973541259759,-10.683975270843504
14030,-0.6337151788573713,-0.3103483536651357,-10.705522501263022
14040,-0.7001543479919434,-0.18106148228300728,-10.782137538909913
14050,-1.119738188934326,0.053420624542236395,-10.89197154006958
14060,-1.5150806650023907,0.18091191774448379,-10.955118024334311
14070,-1.3224972150940446,0.12330140376435592,-10.946738903045654
14080,-0.6883329772949219,-0.049978977922070705,-10.64222637939453
14090,-0.03830729962773616,-0.2729389709915033,-10.377068545532227
14100,0.1340752199035138,-0.391900865980517,-10.242394702148436
14110,-0.008379705810546811,-0.40925886454926796,-10.095001662445068
14120,-0.38441900405883794,-0.3299509162902831,-10.005518375396731
14130,-0.5189432098388672,-0.3067571242401377,-9.936685077667235
14140,-0.8150760276794433,-0.27742811737060535,-9.777769942474363
14150,-1.5863082374572752,-0.1849520782470703,-9.470863217163085
14160,-1.697040064239502,-0.3736450965881348,-9.328108943176268
14170,-1.408389126586914,-0.51191020592954,-9.242965146636962
14180,-1.465849966430664,-0.3353378700256348,-9.170690184020996
14190,-1.40464818649292,-0.2448071197509765,-9.141660488891599
14200,-0.7929295892577618,-0.3390787735870108,-9.126247231182456
14210,-0.2781763053894043,-0.3696048812866211,-9.046042060089109
14220,-0.16534947908930486,-0.3818751282623037,-8.97720817783773
14230,-0.49275648305043573,-0.42706568459775296,-9.034818655285239
14240,-0.7254431030273437,-0.42527006988525384,-8.862287082672117
14250,-1.4136264427185057,-0.19677344894409188,-8.738536784362791
14260,-2.516305944824219,-0.04908113403320319,-8.447940557861328
14270,-2.610577635192871,-0.2600701188018546,-8.597876852306722
14280,-1.9421464591979978,-0.43110593643188466,-8.66985312423706
14290,-1.069908866882324,-0.48587329940795887,-8.697685718536377
14300,-0.8316858747620135,-0.361973363494873,-9.035717065429687
14310,-0.9645639938354492,-0.23747487716674798,-9.027038084411618
14320,-0.8756792572021483,-0.39040450820922845,-8.99486599960327
14330,-0.6144119279723614,-0.6168062026977539,-8.704120135498048
14340,-0.7118261541504413,-0.594959112548828,-8.344092060852049
14350,-1.0474631532531231,-0.6208464545318856,-7.977928844451904
14360,-1.080682701287791,-0.8098386750152334,-7.834725073131919
14370,-1.3452420578002928,-0.8369231178283691,-8.008454915618895
14380,-1.6306009681701659,-0.7477390877212398,-8.387337328338623
14390,-1.1988965543884782,-0.6847416748046874,-8.795997624206542
14400,-0.7867945205688477,-0.5166986275161615,-8.8802430106014
14410,-0.6787561706542968,-0.3586813362121581,-8.812906673431394
14420,-0.8542810798645019,-0.39399581069946266,-8.913313505554198
14430,-1.1656769332885741,-0.5166986640487796,-8.883086709594727
14440,-1.0197802696228027,-0.701650724029541,-8.984092092132569
14450,-0.9469066835265605,-0.749385083096288,-9.230095728191733
14460,-1.0838250909667462,-0.7095814987624993,-9.325414881786703
14470,-0.933289661584422,-0.726490547987353,-9.43704453419149
14480,-0.8948328704833984,-0.757764843705762,-9.431508527374264
14490,-1.1522095489501951,-0.7411550331558099,-9.23832638092041
14500,-1.2355576942443847,-0.8140285644531249,-9.275436506652829
14510,-1.0564415556091813,-0.9949403908660635,-9.445125549316405
14520,-0.8677484642028808,-1.1522095854828132,-9.445125549316405
14530,-0.7113771682739257,-1.1879729179824703,-9.463082061767578
14540,-0.7228991906981914,-1.1373953896453606,-9.642197688946128
14550,-0.7791630027770995,-1.0957961723327636,-9.950751012420653
14560,-0.7543231605529784,-0.9825204514876937,-10.345345373535155
14570,-0.5398924743652345,-0.8646060927902347,-10.704924535369873
14580,-0.28939912567138676,-0.7462427482162602,-11.002104816436765
14590,-0.42242695541381836,-0.5747580360412596,-11.367819120025633
14600,-0.8533831811767072,-0.46866493844296775,-11.687594094738364
14610,-1.060331987176463,-0.4932055237258784,-11.79638063267171
14620,-1.2349591438293457,-0.49350481719970696,-11.689091055297851
14630,-1.3358148156981915,-0.5093664031982421,-11.401038668060302
14640,-0.9689034843444824,-0.6232406196594237,-10.981005914306639
14650,-0.5259761772155762,-0.7564180870056152,-10.657788690185546
14660,-0.5126585035461932,-0.7555202613830565,-10.575488008117677
14670,-0.6694786392211914,-0.6467337234497069,-10.514884778594968
14680,-0.9071031539916992,-0.5568015235900878,-10.55259345474243
14690,-1.1643301217895,-0.5057750276427715,-10.633696451458334
14700,-1.0465652545653283,-0.5479728684356435,-10.631152612194418
14710,-0.519092847442627,-0.6049848320007323,-10.676194115447998
14720,-0.16041143816523262,-0.5277717919280752,-10.704475038036703
14730,-0.30346506042480476,-0.2932897033691406,-10.554838018798828
14740,-0.5888240438599139,0.011971008300781294,-10.41223338241577
14750,-0.5871778840880841,0.23702600088808679,-10.312873428997396
14760,-0.24705161074213688,0.319925196838379,-10.290577426037192
14770,-0.04100070343017581,0.36795890417788174,-10.356418556213379
14780,-0.09816219500117007,0.4294599593231454,-10.416123375591635
14790,-0.3938461730957031,0.5412392493316902,-10.555884897503256
14800,-0.8258499351501464,0.605882694155909,-10.792163258361816
14810,-1.1034276901245117,0.5933130989074709,-10.935216807556152
14820,-1.0393827957153319,0.5119102424621582,-10.861595106506348
14830,-0.550516817297414,0.39594106301572174,-10.626215155792236
14840,-0.07167648526616399,0.28371286019589753,-10.346542474365233
14850,0.10295067138671876,0.17328034515380858,-10.043975239562988
14860,0.0989104560852051,0.04144961624145499,-9.60897872543335
14870,0.00029927520751960035,-0.1008557084014639,-9.253439778900145
14880,-0.4478653480529785,-0.1032499465942383,-9.118017747497559
14890,-1.0767921966552734,-0.07272387542724612,-8.957306961059569
14900,-1.1911153259277343,-0.19707272415161142,-8.754099095153808
14910,-0.8381200725279747,-0.3359363839080557,-8.511386317333576
14920,-0.582688682910055,-0.2908954651763663,-8.406041444286704
14930,-0.42152905672602353,-0.21517880114130677,-8.563160928234456
14940,-0.14799159011840812,-0.12554591302182522,-9.02150149307251
14950,-0.03875606630854311,0.0800561545440927,-9.27663302296102
14960,-0.023343466186523387,0.23119009780883792,-9.293692294311523
14970,-0.17268179473876955,0.28356325912475594,-9.22680428543091
14980,-0.47435120391845703,0.2446574821472169,-9.093926093292234
14990,-0.6227917068481446,0.06868369665835056,-9.096320294952392
15000,-1.0842741499084978,-0.045639469146728506,-8.852560638427732
15010,-1.369483349609375,-0.19782091217041012,-8.45946265335083
15020,-1.4369698358397929,-0.3341407326629385,-8.380303776440025
15030,-1.0664672019958497,-0.5409399010589346,-8.531288703155514
15040,-0.5319616813659669,-0.6359598159790039,-8.698582959637044
15050,-0.1744775190491229,-0.4848258361816405,-8.843432744598388
15060,0.03202244720458991,-0.2876034744262695,-9.169193807983397
15070,0.028281580175831933,-0.11073180851591749,-9.5191955786556
15080,-0.08394669570922852,0.03486555254287091,-9.844807588958739
15090,-0.13227971478886902,0.1156698768394534,-10.13794765472412
15100,-0.04369403416737916,0.1469441268920898,-10.343399500164388
15110,-0.7012018112182618,0.3591302398902829,-10.44994205856323
15120,-1.5471031122069805,0.4083610571930185,-10.411185334667563
15130,-1.588253453240916,-0.04085104756010699,-10.149918078503015
15140,-1.1245265922546386,-0.4746504608596674,-9.580098667907714
15150,-0.45804070510864253,-0.6892307846511713,-9.153332221984863
15160,-0.12015899581909184,-0.8271966735839843,-8.898050469970702
15170,-0.2801216673035174,-0.787692309658788,-8.906130900573732
15180,-0.7270891166687011,-0.588524713853467,-9.214234726715086
15190,-1.0920552322387693,-0.3422211997985839,-9.443030622863771
15200,-1.2773065856933592,-0.2020107833419926,-9.586233809661865
15210,-1.3913303666930643,-0.1367687515701167,-9.785401460266113
15220,-1.3887866004943847,-0.179415486907959,-9.989507151794433
15230,-0.9766844936095178,-0.2919429649353026,-10.134505405315755
15240,-0.7568669267516583,-0.3085527024200187,-10.100986582073569
15250,-0.7088333290100098,-0.3910030586242675,-10.00447091217041
15260,-0.6615477731566877,-0.5298667183807119,-9.83912077549398
15270,-0.5461772537231446,-0.6795043221404775,-9.552565348815916
15280,-0.6006453414916992,-0.8074445098876952,-9.34007995147705
15290,-0.9974841935973614,-0.8213607339721172,-9.313593511089683
15300,-1.2211924842834472,-0.7018003616333007,-9.50049146270752
15310,-1.2056301734924315,-0.4716577270507812,-9.769988787078859
15320,-0.9853635476928204,-0.2861070618560537,-10.060434791454671
15330,-0.7870938688416034,-0.1381155082702637,-10.258705200958252
15340,-0.593612301049754,-0.08185176925659171,-10.36958608082235
15350,-0.6851905876159669,-0.07631517791748049,-10.440814164733887
15360,-0.8749310691833495,-0.12719196319580078,-10.582969888305664
15370,-0.8581715844970196,-0.2289454972198233,-10.658685931286213
15380,-0.9361328491210936,-0.237474877166748,-10.525209773254394
15390,-1.03025482882075,-0.1969230865478515,-10.293271487426757
15400,-0.990002313409373,-0.21024079674985258,-10.124778961071373
15410,-0.9840168823242187,-0.2364274139404296,-10.071358921051024
15420,-1.103577254663035,-0.17732056045532218,-10.083629204559324
15430,-1.491437996673584,-0.03262099761962883,-10.322301182556151
15440,-1.6148889467101544,0.1318306923797355,-10.477026464843748
15450,-1.3506290115356445,0.2654570725372061,-10.491391674804687
15460,-1.120336739349365,0.264259971707128,-10.566360114288331
15470,-0.9626187049865722,0.13766663199160245,-10.5099467376709
15480,-0.9077016313415021,0.09442136450503014,-10.269329470825193
15490,-0.9858124605040997,0.07676412726137782,-10.04831414555013
15500,-1.1121066711425782,0.05416881256103512,-9.888651406860351
15510,-1.5454571716308594,0.1476923514435068,-9.96616368560791
15520,-2.306663735022023,0.31094694061279293,-10.187328063964843
15530,-2.643647545623779,0.3697545188903808,-10.3038957572937
15540,-2.256235789489746,0.3452139884063974,-10.172214665985107
15550,-1.4230536117553712,0.19153605974726373,-9.973645565795897
15560,-0.9292495193481444,0.017657273776270355,-9.955838690948486
15570,-1.1417349166870117,-0.02738368148803716,-10.08542485580444
15580,-1.3832500091552733,0.02678513107299807,-9.925162982177735
15590,-1.2961609237670897,-0.004489091580174964,-9.54508346862793
15600,-1.3218985916137695,-0.05192421197202057,-9.323769452667236
15610,-1.3606547309875487,-0.17148469390869142,-9.236830004882812
15620,-1.2382510980468242,-0.2498947982788085,-9.303418738555907
15630,-1.3075333816528318,-0.10609306106567379,-9.436745843505857
15640,-1.1691185981750487,0.029927520751953096,-9.676465284729003
15650,-1.047762501525879,0.21098905783388755,-9.711330846405026
15660,-0.8907925090514122,0.2672528333801776,-9.64040203770101
15670,-0.7567172891478986,0.2708440993377939,-9.641898413738607
15680,-0.6187514915466309,0.3110965782165528,-9.723750767517089
15690,-0.5508160194396973,0.4370914040496573,-9.843161575317383
15700,-0.5485714553833008,0.6750152122939939,-10.1116114364624
15710,-0.6766611711364239,0.9392752205337398,-10.434229525646568
15720,-1.082627990136668,1.2147580855880864,-10.499920433697103
15730,-1.4870984330993147,1.4399626609802245,-10.525209773254392
15740,-1.3594576301574706,1.299153621043358,-10.471340235900879
15750,-0.757016564355418,0.9148843641861342,-10.2470328833431
15760,-0.3871124078612774,0.664690254167188,-9.9405750708431
15770,-0.5557540603637695,0.5077203530242667,-9.506177691650391
15780,-0.6763618959289044,0.2392705284118653,-9.106046739196778
15790,-0.7477391059875488,0.012120645904540983,-8.800037839508056
15800,-1.1303625318665056,0.011671733093261749,-8.642319805145263
15810,-1.2422912402831017,-0.07407057732846589,-8.591741710552572
15820,-0.9657610946655273,-0.125097036743164,-8.7187846206665
15830,-0.9142857589721679,0.10953472595214853,-8.955960222625732
15840,-0.8635586112976072,0.2859574973175302,-9.39200419998169
15850,-0.7303810708861798,0.4044704612289555,-9.714173376354575
15860,-0.5936123741149902,0.4713584518432618,-9.821464122772216
15870,-0.6090250473022462,0.4019266036987304,-9.673622170257568
15880,-0.7000047834534198,0.1429038933242671,-9.386467608642576
15890,-0.724694988073781,-0.1922843025649897,-9.243862972259521
15900,-1.008557376275584,-0.3218704491546377,-9.286509104809165
15910,-1.3483845205444842,-0.2156277870178222,-9.404723396301268
15920,-1.555782166290283,-0.006883338906103792,-9.545981294250488
15930,-1.827823256860301,0.17417817990952172,-9.654019059643149
15940,-1.9466355873107908,0.26530747146606437,-9.711330846405028
15950,-1.9208979194641111,0.19183541715317398,-9.696965636444093
15960,-1.825279417596385,-0.007332233451074005,-9.74963807296753
15970,-1.771709265048243,-0.007631526924902501,-9.79961703262329
15980,-1.7763479576995596,0.09876082761459981,-9.745597273144128
15990,-1.4302361802032217,0.06539164197617209,-9.849296132549643
16000,-1.2164040809631347,0.1108814461196773,-9.812934779357908
16010,-1.1257237296173348,-0.026186571524804504,-9.956137966156005
16020,-1.3709797256469725,-0.0915782135009765,-10.075997686767577
16030,-1.6698060203552245,-0.3528454605323728,-9.989207876586914
16040,-1.6518495079040527,-0.3637690056068356,-10.036194084167482
16050,-1.2400468223571777,-0.0534206154090818,-10.081235002899167
16060,-0.8427589843749999,-0.1032499465942383,-9.968258612060547
16070,-0.9490016830444336,-0.1752256340026855,-9.932195949554442
16080,-0.7803601036071777,-0.4216787491287103,-9.904512992858887
16090,-1.0209773704528806,-0.4791396072387694,-9.785401460266113
16100,-1.426794515316747,-0.47135845184326164,-9.578303016662597
16110,-1.1993454306671394,-0.5744587608337401,-9.524882392120361
16120,-1.114500799737498,-0.5012859725952147,-9.602244448742267
16130,-1.323993481533788,-0.3131914864028803,-9.793780581554769
16140,-1.2330138549804686,-0.1022024833679199,-10.039635749053955
16150,-1.1035773094619623,0.15502455749511723,-10.392331581115721
16160,-1.061080229994189,0.3966893058334478,-10.748169802856445
16170,-1.0447697311843744,0.5310638648765627,-10.956914260101318
16180,-0.7113771591407713,0.4864718589561525,-10.947187815856932
16190,-0.3389291725158691,0.45429978328095755,-10.75684878387451
16200,-0.3239654167064697,0.43858779835356404,-10.511293476104735
16210,-0.7628524857009761,0.2633621826171875,-10.18388639907837
16220,-0.9617208702308591,0.027234043884277415,-9.982474184417727
16230,-0.692373219995899,-0.04219780426025388,-9.954641590118408
16240,-0.44517187118530266,0.1107318267822266,-10.101585717010497
16250,-0.4248211707737064,0.2976291938781738,-10.413729758453368
16260,-0.40252515183048077,0.42886137237548827,-10.811166649517418
16270,-0.1258452270452515,0.4819827582428232,-11.099967224773764
16280,-0.013766661829187,0.47390232763979584,-11.10730005187988
16290,-0.0360626693559693,0.392649072265625,-10.730811840820312
16300,-0.1390133293262449,0.14006077885283164,-10.200047260284421
16310,-0.2545335639953612,-0.2406172668457032,-9.891344883728026
16320,-0.5407902999877929,-0.4255693085601553,-9.702651280865075
16330,-1.3409025307586415,-0.34207156219482415,-9.512612108612062
16340,-1.9422961333343758,-0.2599205177307129,-9.238176743316652
16350,-2.1359272291321307,-0.2091933335235342,-9.059957772716878
16360,-1.7803881912673822,-0.2671031227111816,-9.203011906433106
16370,-1.1900678261687978,-0.24540563363339757,-9.431956855663655
16380,-1.102529896467994,-0.11402385406494137,-9.514707035064696
16390,-0.9377788890202705,0.051924248504638615,-9.8962829246521
16400,-0.8089408608091181,0.1102829139709473,-10.089315433502197
16410,-0.798765547135938,-0.039504309126269094,-10.102482958111164
16420,-0.6976104721954092,-0.2730886268615722,-10.048614005279541
16430,-0.4239233314514161,-0.5132569808959961,-9.783156896209716
16440,-0.5363011992744635,-0.6405985816955566,-9.48193639984131
16450,-0.7143699294822756,-0.5997474976028315,-9.53146644668579
16460,-1.0685621010490227,-0.3431190254211425,-9.66688847808838
16470,-1.3697826567829352,-0.024839842224121098,-9.900323139953612
16480,-1.3652934327720199,0.24061726684570311,-10.2004961730957
16490,-1.1917138580764641,0.44966101756440474,-10.420911778911949
16500,-1.1843816657245858,0.5111620818428231,-10.427496417999267
16510,-1.3717279273655032,0.41374798352890657,-10.256460636901854
16520,-1.1475707741004881,0.2995745009933599,-10.007163804516196
16530,-0.9777321486320812,0.13826513674086888,-9.692027010998128
16540,-1.209520796855958,-0.0013467293006833997,-9.46831937789917
16550,-1.1969512564064468,-0.1650502678138668,-9.374047103008627
16560,-1.17540335926665,-0.18644845428466789,-9.479841473388673
16570,-1.4041992828147951,0.020051438903808602,-9.83777462158203
16580,-1.4664485625114758,0.272340447975928,-10.129268673706054
16590,-0.9506476875526364,0.3103483901977539,-10.248380206298826
16600,-0.5279215117302258,0.16909050138168968,-10.345195151409506
16610,-0.37978022920913057,0.02573766784667969,-10.229825143432615
16620,-0.19288288037949242,-0.0987608184814453,-9.964368034362796
16630,-0.6346130775451662,-0.1113303771972657,-9.706991355895996
16640,-1.7729063087961052,-0.12494738087309529,-9.42297859943807
16650,-2.2331916647261125,-0.2358288635253905,-9.20046806716919
16660,-1.6528968980651348,-0.2494458854675292,-9.178172064208985
16670,-0.8831611037116294,-0.2147299431289545,-9.409361577495934
16680,-0.7040449291146302,-0.1527799934387206,-9.618555532073975
16690,-0.7068880401611328,-0.1449988380432129,-9.8457054145813
16700,-0.7076362350297976,-0.1577180343627929,-9.821464122772216
16710,-0.6087257675281494,-0.1994669258117675,-9.85782606048584
16720,-0.6332663573776371,-0.1789665740966796,-9.746495683288574
16730,-0.8057984734134516,-0.14814122772216798,-9.394248764038085
16740,-0.5437830794624519,-0.18779517445219668,-9.430759754833579
16750,-0.17986439058608378,-0.26171616897583005,-9.380781379699705
16760,-0.15248071823120118,-0.2867056488037108,-9.299079248046874
16770,-0.3591302398902829,-0.2624643387283197,-9.170240686687826
16780,-0.7824550026603508,-0.1918354080200195,-8.826673332977293
16790,-0.8271967101166025,-0.1864484360183589,-8.753799235424397
16800,-0.6313210753786261,-0.1810615005493164,-8.98828194503784
16810,-0.4409820114301634,-0.11537059249877929,-9.331101695251466
16820,-0.43364978482895533,0.1617582405311521,-9.596558804321289
16830,-0.525228009746375,0.39429507677382786,-9.8762309012264
16840,-0.2543839241083129,0.3452139701400883,-10.28668743286133
16850,-0.0626981514087645,0.2790741310119628,-10.256759912109372
16860,-0.009427166753576598,0.24615387645112352,-9.77462696827352
16870,-0.17028759764519052,0.14335284266816448,-9.25089535511434
16880,0.0429459848583646,-0.11956042713774369,-8.959401302990317
16890,0.5467758178379154,-0.4046200623000971,-8.743324603161215
16900,0.5235819892551516,-0.5108627792358398,-8.486098146820067
16910,0.14095862274169918,-0.3833715408325194,-8.502109370422362
16920,-0.02274492490463889,-0.28760347442626943,-8.756194021606445
16930,-0.6510732322250493,-0.08454522785795848,-8.957456014141439
16940,-1.2744635168876963,0.1010053825378418,-9.205106832885741
16950,-0.5939116584556642,0.01915361328125001,-9.737667064666748
16960,0.606930166515382,0.01331775586777359,-10.076446015056968
16970,1.474528974848194,-0.0496796798816649,-10.102483542633054
16980,1.7815853468963876,-0.1848024315101559,-10.038288426098227
16990,1.7007809952003416,-0.34072482376098623,-10.027215827941895
17000,1.3651438591003417,-0.3809773483055177,-9.757868141174317
17010,0.1354220496688969,-0.25513209614409127,-9.176974378857015
17020,-1.1477204025710932,-0.25932195818251924,-8.929473782238365
17030,-0.9633668564727529,-0.5029319725368404,-9.026289311870931
17040,-0.2397194412231444,-0.7031471183334476,-8.990975421905517
17050,0.2666542464325205,-0.7100304435398196,-9.303118878826497
17060,0.5882254203796387,-0.6096235743135767,-9.748141696929931
17070,0.7377134048019537,-0.5111620681430912,-9.949853186798096
17080,0.9017162002563477,-0.523282702631189,-9.956137381634115
17090,1.2695254668304699,-0.7053916755399784,-9.924863122448324
17100,1.612794111589063,-0.996885700264538,-9.803806885528566
17110,1.6871639275924304,-1.083525907090772,-9.554809912872315
17120,0.70793552165376,-0.7671919944763185,-9.29429084472656
17130,-1.2584522110870107,-0.4765957599833433,-9.341426689910888
17140,-2.7235540625641126,-0.6649895370808065,-9.468917928314209
17150,-2.034622571386769,-1.0408791414993552,-9.611073651885985
17160,-0.4737526535034179,-1.186775831137535,-9.312696269989013
17170,0.6525695899963379,-1.272667861076002,-9.196427851867675
17180,0.7410054503509775,-1.3109750830719247,-9.541641219219565
17190,0.20156185226440437,-1.1879729590816654,-9.893140534973142
17200,0.030975020510889573,-1.0024223075866696,-10.02990872028768
17210,0.22849662094116213,-0.8711901108230463,-10.195857407379151
17220,0.24256255569458007,-0.8010100837928708,-10.406098240661622
17230,-0.2594716049194335,-0.6542155853713862,-10.487351459503174
17240,-1.1908159776549785,-0.45848959965361274,-10.819695992931724
17250,-1.3338695999145507,-0.4447229583740234,-11.145008728027342
17260,-0.6079776023422367,-0.46357731471406294,-11.350461157989502
17270,0.2702455123901367,-0.43529577107084916,-11.305120964050293
17280,0.4773439377273433,-0.47345338742905296,-11.34462529144287
17290,0.2132336036239751,-0.509516022535693,-11.157876977428792
17300,-0.0828992324829102,-0.4261678863746581,-10.511293476104735
17310,-0.6205471427917479,-0.32187050395356487,-10.067169068145754
17320,-0.9392752388000487,-0.356586437158985,-9.95942999343872
17330,-0.8505401397705077,-0.3420715713279787,-10.188375527191162
17340,-0.6109702996185049,-0.1102829322372563,-10.722281912884116
17350,-0.5195417602539062,0.23074118499755852,-11.14066923751831
17360,-0.2464530968597159,0.4517559348838868,-11.2437689619869
17370,0.0595557662963867,0.5024830825584475,-11.08874498901367
17380,0.10714052429199217,0.41195230488432566,-10.685022734069824
17390,0.052822074127197194,0.24226327106849488,-10.146776273345944
17400,-0.49185880355834966,0.10474632034854729,-9.58922656173706
17410,-1.1300631835937498,-0.1870469955665524,-9.229048849487302
17420,-1.20907176531367,-0.551264941384131,-9.146897220501302
17430,-1.1945569177489728,-0.6293757614135741,-9.14270736759603
17440,-1.4209586853027343,-0.5087678573497803,-9.368511096191407
17450,-1.7479167764525858,-0.32097267148114034,-9.94790731342733
17460,-1.5067009591918437,-0.16729484328670657,-10.609006246837971
17470,-0.8213607339721172,0.004339481375878702,-11.092036431774499
17480,-0.3585316986083984,0.1505354248157468,-11.238681867980958
17490,-0.20365670565180471,0.1782183769447262,-11.094729908642172
17500,-0.0918774887084961,0.0375590431102785,-10.803086803436278
17510,-0.24450777147822078,-0.08200140914364021,-10.4393172041744
17520,-1.4082394889831542,0.13736731340159888,-10.146028085327146
17530,-2.7654524820189925,0.2240074808411038,-9.87683003616333
17540,-2.7343278604369607,-0.114023852923297,-9.851391059002276
17550,-1.8269255043029784,-0.18779518586863989,-9.790489138793944
17560,-1.150862737451121,-0.0167594064836942,-9.74918857563436
17570,-1.160738892364502,0.13033434944982292,-10.052205307769777
17580,-1.071704445062205,0.1146224113298464,-10.274416564831137
17590,-0.8723871568541974,0.09501987838745118,-10.063726818737386
17600,-0.6742670425415038,-0.0025438301307613986,-9.509768994140623
17610,-0.5672761558532715,-0.24016836316757828,-8.94952580566406
17620,-1.0357914932250976,-0.3719990829467772,-8.660126679992674
17630,-1.841290787329152,-0.44846388933486303,-8.515277479553221
17640,-1.9334674781799315,-0.6010942451698239,-8.518120594024657
17650,-1.4604629396300761,-0.5777507515838368,-8.601767430004475
17660,-0.8749309961181134,-0.4688146080127683,-8.79644595249593
17670,-0.800710817718506,-0.2995744781604735,-9.14914236907959
17680,-0.8843582382202149,-0.1674444923069094,-9.575759177398682
17690,-0.8764274452209473,-0.0249894832528137,-9.687837742614747
17700,-0.8734346200805156,0.0695815005896671,-9.51784884022176
17710,-1.2387000839233397,0.011522100056079197,-9.39125601196289
17720,-1.510591609954834,-0.1563712799459345,-9.294590119934083
17730,-1.4826093780517575,-0.2566284995811525,-9.111732968139648
17740,-1.128117894744873,-0.404919378606812,-8.900743946838377
17750,-0.6980594215393067,-0.5421370384216309,-8.712499841308592
17760,-0.5645826789855957,-0.6259341010936769,-8.565705352020263
17770,-0.7128735443115235,-0.6455366226196289,-8.532485803985596
17780,-1.0311527275085448,-0.5734112930408446,-8.595483235168457
17790,-1.5569792671203613,-0.3998316955124027,-8.90538271255493
17800,-1.4487912796020508,-0.38307225420855673,-9.39170492477417
17810,-1.1156979736328125,-0.39668927615069544,-9.663147537994385
17820,-1.4839561164855957,-0.2398690719770383,-9.80620108718872
17830,-1.7432780838012694,-0.2944868087657959,-9.969754988098144
17840,-1.3051391799926757,-0.6759130470497067,-9.89463691101074
17850,-0.8262987748961895,-0.9844657677360343,-9.396343105968834
17860,-0.6048351943969725,-1.280299346901709,-9.04050546875
17870,-0.6871358764648438,-1.5710452201400882,-8.83610050201416
17880,-0.7061398521423339,-1.7643770041977054,-8.708908538818358
17890,-0.37963060073852534,-1.8568529793891588,-8.807070806884768
17900,-0.18540084492787728,-1.7051205131088383,-9.311348947033286
17910,-0.4514566505432129,-1.1888707436050288,-9.950451737213134
17920,-1.1608885299682616,-0.6012438919067382,-10.319308430480955
17930,-1.527650296783447,-0.3733458305137697,-10.744728137969968
17940,-1.2773065856933594,-0.3963900214927736,-11.328614067840576
17950,-0.6717232032775877,-0.429908844734961,-11.199626453399658
17960,-0.16235680007934566,-0.49245735397338863,-10.880299806976318
17970,-0.027234043884277304,-0.5834370353256351,-10.46430726852417
17980,-0.4308066246917472,-0.6575076126541011,-10.244339406475422
17990,-1.3748702668121084,-0.5970540390014647,-10.251372958374024
18000,-1.758241880709864,-0.6435913520370609,-10.27905591506958
18010,-1.489043831546046,-0.5526116706848144,-10.536432593536377
18020,-0.9798270294189453,-0.30870237655639654,-10.832715048980713
18030,-0.5882254203796385,-0.0915782135009765,-10.992228734588622
18040,-0.243909294128418,-0.08230068206787111,-11.034875451660156
18050,-0.07077858657836911,-0.087538034732081,-10.95003093032837
18060,-0.0028431144714355927,-0.1361702194213868,-10.657639052581787
18070,0.23388357467651372,-0.3565864097595215,-10.311227999877929
18080,0.38292262802124016,-0.557848950283788,-10.099640428161619
18090,0.10818798751831055,-0.5523123954772949,-9.993547367095946
18100,-0.10295063485410061,-0.4929062302520498,-10.071956886944173
18110,-0.13452420578002927,-0.40252515411376955,-10.209773704528809
18120,-0.2754828285217285,-0.3229179489135742,-10.269030195617674
18130,0.006284815890528317,-0.44996020144037896,-10.258704616436361
18140,0.23523027657773343,-0.4758475799560546,-10.065223779296874
18150,0.13766663199160245,-0.34192192459106446,-9.878176774597167
18160,0.019303250885009726,-0.23478140029907227,-9.884162278747558
18170,-0.3495534423828125,-0.036361937713623005,-10.077942975616454
18180,-0.6561608924865722,0.14769231491088863,-10.305990683746337
18190,-0.5714660087585449,0.2346317626953125,-10.547954689025879
18200,-0.40985739669799803,0.3075052757263183,-10.742184298706054
18210,-0.5747581091064959,0.43544542694091803,-10.831069035339354
18220,-1.0033201332092285,0.6238391700744631,-10.88628531112671
18230,-0.9783306533813476,0.6088754462311043,-10.751461830139158
18240,-1.068711766052246,0.6368576050689445,-10.371980867004394
18250,-1.2214917594909667,0.5557540238311514,-9.933393050384518
18260,-0.9175777862548827,0.213981809909083,-9.76175871887207
18270,-0.5472247169494628,-0.0757166275024414,-9.641599723052977
18280,-0.33309330596923825,-0.17881693649291985,-9.413103102111815
18290,-0.3232172241210937,-0.14380170068051662,-9.14061302566528
18300,-0.6362590911865234,0.00014963760375980018,-8.965836304473875
18310,-1.131858834838867,0.174926358795166,-9.093028267669677
18320,-1.398064058862254,0.18749599057622257,-9.305064167675376
18330,-1.1468225221496073,0.20515322781987483,-9.337984440502522
18340,-0.7990647310119122,0.33025022803042076,-9.191638864025473
18350,-0.4613327323913574,0.3761888993194326,-9.187299958038329
18360,-0.31603461914062503,0.2612672561645507,-9.333944809722901
18370,-0.3326443200927228,0.17702132178042085,-9.309852570995687
18380,-0.5554547120910138,0.19123689413759853,-9.108440356335041
18390,-0.6549637916564941,0.20066402664184574,-8.88712692489624
18400,-0.5907691865783186,0.1198597571441904,-8.773401761516928
18410,-0.7142202827453613,0.04938040924072262,-8.668207110595702
18420,-0.6669348730225116,0.03351882324218747,-8.744971201324462
18430,-0.4460696968078614,0.09262565846098586,-8.870367513275148
18440,-0.22011684206537907,0.08364742050170898,-8.965686082348228
18450,-0.05012852419428526,-0.03097500224458047,-9.144503603363036
18460,-0.14903898027949036,-0.11237780389096591,-9.236979057964682
18470,-0.5219359619140624,-0.09232638325346637,-9.063848934936525
18480,-0.7583633758544922,-0.124498468061816,-8.914809881591797
18490,-0.6913257293701172,-0.30780455093383785,-8.869320050048827
18500,-0.4554968658447266,-0.42796354675292947,-8.865279834747314
18510,-0.3805284263610839,-0.4026747734512201,-9.011475773620605
18520,-0.6801028360228987,-0.2252045753921382,-9.202562409099937
18530,-0.8367734802246093,-0.1224035598754883,-9.307458953857418
18540,-0.6287771379332989,-0.2108393654312007,-9.365817034801841
18550,-0.38172552719116204,-0.2536357383728026,-9.362525592041015
18560,-0.30047223528437317,-0.2174234199966305,-9.364321243286135
18570,-0.3648164049010724,-0.2340331940139643,-9.515454638561605
18580,-0.46866497497558585,-0.28924946980131777,-9.666888478088378
