time [ms],gyro_x [rad/s],gyro_y [rad/s],gyro_z [rad/s]
0,-0.0967881307005882,0.1180416569113731,-0.0471316948533058
10,-0.0908703207969665,0.1164024844765663,-0.0694226175546646
20,-0.0611481294035911,0.0891684591770172,-0.0585060864686965
30,-0.01167618855834,0.0370250977575778,-0.0398367941379547
40,0.0405204780399799,-0.0197036862373352,-0.0405906774103641
50,0.0821536779403686,-0.0537655130028724,-0.049245148897171
60,0.0874424502253532,-0.0557769984006881,-0.0599904730916023
70,0.0566318035125732,-0.0298122465610504,-0.0724577978253364
80,0.0149757023900747,0.0360165685415267,-0.0813189297914505
90,-0.0311965867877006,0.0953619182109832,-0.0640917420387268
100,-0.0677704140543937,0.1203946992754936,-0.0393719673156738
110,-0.0748565569519996,0.1172098293900489,-0.028665529564023
120,-0.0524150468409061,0.0919108092784881,-0.0441634617745876
130,-0.00435058074072,0.0492040924727916,-0.0597046054899692
140,0.0430621691048145,0.0118705611675977,-0.0612080171704292
150,0.0814436450600624,-0.0271532703191041,-0.0465899258852005
160,0.1052913516759872,-0.0657204985618591,-0.0517143383622169
170,0.1162537261843681,-0.0888250172138214,-0.0779645815491676
180,0.1082715690135955,-0.1157923191785812,-0.1122373193502426
190,0.0806210339069366,-0.0469176471233367,-0.0970527753233909
200,0.0312600508332252,0.0269901938736438,-0.0449818894267082
210,-0.0085297059267759,0.0668087154626846,-0.019624600186944
220,-0.0158671345561742,0.1028873026371002,-0.0366695597767829
230,-0.0032458808273077,0.0899890810251236,-0.0528357475996017
240,0.0188162475824356,0.0461376458406448,-0.0460658706724643
250,0.0251708142459392,-0.0003409064374864,-0.061983048915863
260,0.0377357341349124,-0.0316696688532829,-0.0680079311132431
270,0.0474964864552021,-0.043070126324892,-0.046792659908533
280,0.0519199036061763,-0.0357839241623878,-0.01867451146245
290,0.0468806698918342,-0.0404340699315071,-0.0121236676350235
300,0.0380534566938877,-0.0166493579745292,-0.0286433696746826
310,0.020256083458662,-0.0047285165637731,-0.0271924808621406
320,0.0045327609404921,-0.0216944552958011,-0.0336496122181415
330,0.0044954763725399,0.015402047894895,-0.0472525060176849
340,0.0014026558492332,0.0443056598305702,-0.0505993366241455
350,-0.0025840960443019,0.0576654113829135,-0.0327172763645648
360,-0.008784744888544,0.0624943301081657,-0.0169760473072528
370,0.0052317385561764,0.0289877727627754,-0.0124699790030717
380,0.0396904237568378,0.0087510561570525,-0.0108173564076423
390,0.061971228569746,-0.0156213957816362,-0.0049112648703157
400,0.072911225259304,-0.0631534904241561,-0.0133316479623317
410,0.0690405890345573,-0.0562591031193733,-0.0471769608557224
420,0.0512681156396865,-0.0075245327316224,-0.036914300173521
430,0.0147436615079641,0.0155328502878546,-0.0036266539245843
440,-0.0066905878484249,0.0353839322924613,0.0231294315308332
450,-0.0194029211997985,0.0385347194969654,0.025571284815669
460,-0.0211184248328208,0.0234308876097202,0.0135632418096065
470,-0.0223139189183712,0.040136631578207,0.00347944884561
480,-0.0200133472681045,0.0398179069161415,0.0160931460559368
490,0.0020152542274445,0.0318673029541969,0.0305200219154357
500,0.0545974858105182,0.0169870480895042,0.0128037771210074
510,0.099177211523056,0.015503667294979,-0.0283854696899652
520,0.1010720431804657,0.0191949121654033,-0.0321865305304527
530,0.0555940419435501,0.021544886752963,-0.0359865948557853
540,0.0127873923629522,0.0647747963666915,-0.0501763448119163
550,-0.0073463707230985,0.1289918720722198,-0.0565191954374313
560,-0.0168057642877101,0.1531360298395156,-0.0374436415731906
570,-0.0325205437839031,0.1507455855607986,-0.0146347340196371
580,-0.02704593911767,0.1298535168170929,0.0152500206604599
590,0.0077360109426081,0.0792292356491088,0.0390970297157764
600,0.0533355884253978,0.0209379084408283,0.0336054265499115
610,0.0958652049303054,-0.0489940382540226,0.0291110724210739
620,0.1138567924499511,-0.0815773457288742,0.0196693744510412
630,0.0945105254650116,-0.0774153545498848,0.0122953485697507
640,0.0379994437098503,-0.0643391832709312,0.0056626480072736
650,-0.0242021419107913,-0.0071153109893202,0.0162761434912681
660,-0.072264090180397,0.0554837509989738,0.0309576019644737
670,-0.0886744856834411,0.0805377066135406,0.0299045890569686
680,-0.0827988311648368,0.0763151347637176,0.0272335149347782
690,-0.0602274760603904,0.045465350151062,0.0344879627227783
700,-0.0281952135264873,-0.0011850497685372,0.0481813512742519
710,0.0052290549501776,-0.0445642173290252,0.0441365428268909
720,0.0309658739715814,-0.0557847209274768,0.0281772315502166
730,0.0381425619125366,-0.0542379580438137,0.0193563103675842
740,0.0196125116199255,-0.0496599897742271,0.0198934096843004
750,-0.0124998837709426,-0.0351401716470718,0.0196372140198946
760,-0.0539131835103035,-0.0160954948514699,0.0024425897281616
770,-0.0983946397900581,0.0241179708391428,-0.0111246183514595
780,-0.140718787908554,0.0621704198420047,-0.0018661236390471
790,-0.1511349380016327,0.0707239508628845,0.0217340104281902
800,-0.1116351410746574,0.0602307692170143,0.0313756950199604
810,-0.0301733091473579,0.0366663187742233,0.0117090512067079
820,0.0517247430980205,-0.0079316971823573,0.0004149344749748
830,0.0966634601354599,-0.0567967072129249,0.0075609940104186
840,0.1062821820378303,-0.0966187044978141,0.0087049677968025
850,0.0847832858562469,-0.11850456148386,0.0059299543499946
860,0.053916648030281,-0.1113937720656395,0.0188623704016208
870,0.0147615224123001,-0.0864194482564926,0.0405953601002693
880,-0.0291603356599807,-0.0490096434950828,0.0598067678511142
890,-0.0530472919344902,-0.0281959734857082,0.0462265089154243
900,-0.0471862852573394,0.0096772508695721,0.0270329173654317
910,-0.0318432822823524,0.0392348766326904,0.0447711683809757
920,-0.0304075945168733,0.0285428129136562,0.0754590108990669
930,-0.0313444957137107,-0.0102463942021131,0.0841739401221275
940,-0.0081245116889476,-0.0528362244367599,0.0609541907906532
950,0.0348051115870475,-0.0962100625038147,0.0313662029802799
960,0.0673858076333999,-0.1221047490835189,0.026530347764492
970,0.06996401399374,-0.1134420186281204,0.0123982839286327
980,0.0504224449396133,-0.0547501519322395,0.0056633790954947
990,0.0214251521974802,-0.0013348637148737,0.0044559016823768
1000,-0.0009612063877284,0.0476376973092556,-0.0072107152082026
1010,-0.0126945609226822,0.0725726038217544,-0.0261178277432918
1020,-0.001097242347896,0.0576393976807594,-0.0219827592372894
1030,0.0187289267778396,-0.0041704447939991,-0.016482800245285
1040,0.0372329801321029,-0.0675615295767784,-0.0281429030001163
1050,0.0586764886975288,-0.1055968031287193,-0.0639355182647705
1060,0.073418952524662,-0.1056313142180442,-0.0796931087970733
1070,0.0559014715254306,-0.0756076350808143,-0.0632837787270546
1080,0.0162213239818811,-0.0194496065378189,-0.0429967530071735
1090,-0.0203542634844779,0.033131044358015,-0.0393468923866748
1100,-0.0242166463285684,0.0575948432087898,-0.042057454586029
1110,-0.0079841464757919,0.0446364320814609,-0.0388179868459701
1120,0.0138115128502249,-0.0064927767962217,-0.0341048687696456
1130,0.0418561995029449,-0.0801568776369094,-0.0329743549227714
1140,0.0733837261795997,-0.1241715550422668,-0.0389016307890415
1150,0.0911121293902397,-0.1408432275056839,-0.0479784831404686
1160,0.0787373185157775,-0.1084000319242477,-0.0590392388403415
1170,0.0422829091548919,-0.0389961898326873,-0.0511837117373943
1180,-0.0025328719057142,0.0174838416278362,-0.0253488048911094
1190,-0.0358210541307926,0.0571707971394062,-0.0175177808851003
1200,-0.0282754693180322,0.0622088983654975,-0.0156847480684518
1210,-0.0017493185587227,0.0257044173777103,-0.012935834005475
1220,0.0308480076491832,-0.0168139412999153,-0.0200123339891433
1230,0.0472336374223232,-0.0541983321309089,-0.0229519307613372
1240,0.0559830367565155,-0.0788546279072761,-0.0330244004726409
1250,0.048770397901535,-0.0916026458144187,-0.0405411720275878
1260,0.0307911410927772,-0.0898147821426391,-0.0369074419140815
1270,-5.30588440597e-05,-0.0662002637982368,-0.0349276475608348
1280,-0.0330544486641883,-0.0282051414251327,-0.0169395394623279
1290,-0.0569768249988555,0.0135899763554334,0.0068387603387236
1300,-0.0634912773966789,0.0458457097411155,0.0255242586135864
1310,-0.0530524849891662,0.0481791719794273,0.0421319976449012
1320,-0.0173335298895835,0.0240616090595722,0.0393515452742576
1330,0.0345685519278049,-0.015198977664113,0.0265017915517091
1340,0.0813905075192451,-0.0537755340337753,0.0043304273858666
1350,0.104793295264244,-0.0676202476024627,-0.0067350063472986
1360,0.0973393991589546,-0.0630839690566062,-0.0129677690565586
1370,0.0677801743149757,-0.0389283038675785,-0.0022011415567249
1380,0.0425810329616069,-0.0022004155907779,-0.0053655561059713
1390,0.0248220060020685,0.0365757420659065,-0.0108098564669489
1400,0.0028822810854762,0.0464071333408355,-0.0184619259089231
1410,-0.0111650945618748,0.0367561057209968,-0.0133502529934048
1420,-0.0215636156499385,0.0190909393131732,-0.0228626392781734
1430,-0.0349931381642818,-0.0053113382309675,-0.0213249288499355
1440,-0.0620570592582225,-0.0035005102399736,-0.0021588818635791
1450,-0.0818424746394157,-0.0128042632713913,0.0020656906999647
1460,-0.0669589191675186,-0.0023332559503614,0.0038917595520615
1470,-0.0130109945312142,0.0058711445890367,0.0018957206048071
1480,0.0537241250276565,-0.002978082280606,0.0002636818680912
1490,0.0927868410944938,-0.0251014940440654,0.0032826412934809
1500,0.1024145781993866,-0.0348057299852371,0.005040792748332
1510,0.0811388567090034,-0.0257374010980129,-0.0074329217895865
1520,0.0493902266025543,-0.0083514899015426,-0.0041503394022583
1530,0.0141968196257948,0.0079931281507015,-0.000725248013623
1540,-0.0066635771654546,0.0304335933178663,-0.0007044601952657
1550,-0.0108109172433614,0.0249807704240083,0.0080096684396266
1560,-0.0012141345068812,0.012385900132358,0.0151803512126207
1570,0.007908790372312,-0.015720035880804,0.0127845723181962
1580,0.0229084827005863,-0.0464626960456371,0.0130165861919522
1590,0.0329209044575691,-0.0540194138884544,-0.0036686505191028
1600,0.0309127531945705,-0.0311543401330709,-0.0129789775237441
1610,0.0160251520574092,-0.0041661313734948,-0.0025396521668881
1620,-0.0057000662200152,0.0146053545176982,0.0041150320321321
1630,-0.0228598788380622,0.0240161679685115,0.0162808839231729
1640,-0.0327901393175125,0.0084238406270742,0.0300263557583093
1650,-0.0394355282187461,-0.0081607289612293,0.0397610068321228
1660,-0.0301013421267271,-0.0196150504052639,0.0361284613609313
1670,-0.0135463327169418,-0.02302629314363,0.0357795879244804
1680,-0.0059976321645081,-0.015932623296976,0.0253219418227672
1690,-0.0091665275394916,0.0026626330800354,0.0073983361944556
1700,-0.0119695048779249,0.0287522915750741,-0.0064551616087555
1710,0.0030866761226207,0.0288750622421503,0.0010248590260744
1720,0.0290473438799381,0.0031396662816405,0.0226459596306085
1730,0.0646793693304061,-0.033745914697647,0.0287853460758924
1740,0.0855464041233062,-0.0686357766389846,0.0135752717033028
1750,0.0739920139312744,-0.0748971402645111,-0.0110810715705156
1760,0.026720417663455,-0.0478416234254837,-0.0313855670392513
1770,-0.0401076152920722,-0.004255264531821,-0.0283996313810348
1780,-0.0895703509449958,0.0385100990533828,-0.0142591129988431
1790,-0.09380903840065,0.0498935133218765,-0.0024692993611097
1800,-0.0629016458988189,0.0334410592913627,-0.0033717234618961
1810,-0.032663308084011,-0.0097634047269821,-0.0191749203950166
1820,-0.0323845334351062,-0.0278650037944316,-0.0247136708348989
1830,-0.0558712147176265,-0.0246822591871023,-0.0136615531519055
1840,-0.0784425660967826,0.0077406605705618,-0.0104886628687381
1850,-0.0650508627295494,0.0319839492440223,-0.0080715781077742
1860,-0.008596028201282,0.0278840288519859,-0.0035885577090084
1870,0.0574469044804573,-0.0023015695624053,0.0019084729719907
1880,0.1086921095848083,-0.0525209307670593,0.0034980988129973
1890,0.1145768910646438,-0.0905788317322731,-0.0066269733943045
1900,0.0919298976659774,-0.091475524008274,-0.0225108657032251
1910,0.0352620966732502,-0.0510239675641059,-0.0376650467514991
1920,-0.0237782895565032,0.0136537514626979,-0.0451757498085498
1930,-0.0753986090421676,0.0806447640061378,-0.033309768885374
1940,-0.103802740573883,0.1087873876094818,0.006926073692739
1950,-0.1034887582063674,0.0958494842052459,0.0262094922363758
1960,-0.0550836138427257,0.0633544102311134,0.0097709540277719
1970,0.0025261528789997,0.0140395909547805,0.0026973318308591
1980,0.0439013577997684,-0.0503723844885826,0.0131037114188075
1990,0.0561574921011924,-0.0839162245392799,0.0141673777252435
2000,0.0402685329318046,-0.0750701949000358,0.013718451373279
2010,0.0091207325458526,-0.0567966476082801,-0.007654215209186
2020,-0.0237579364329576,-0.0145971179008483,-0.0278486236929893
2030,-0.057195521891117,0.0146601041778922,-0.0292648933827877
2040,-0.084922157227993,0.0228346101939678,-0.0226290877908468
2050,-0.0946379005908966,0.0346627756953239,-0.0168952997773885
2060,-0.0845105275511741,0.0329350531101226,-0.009377684444189
2070,-0.0628459826111793,0.0189257636666297,-0.0009098972659558
2080,-0.0355584174394607,0.0046012615785002,0.0032820177730172
2090,-0.0033349646255373,-0.0248248036950826,-0.0172759871929883
2100,0.0178245585411787,-0.0444880314171314,-0.0336739756166935
2110,0.014211181551218,-0.063637226819992,-0.0399300083518028
2120,-0.0114764738827943,-0.0653594359755516,-0.0423503890633583
2130,-0.0455548129975795,-0.0559329167008399,-0.0465515255928039
2140,-0.068353071808815,-0.0195392202585935,-0.0551751069724559
2150,-0.0738490372896194,0.0232812128961086,-0.0526328533887863
2160,-0.0718217641115188,0.0506696291267871,-0.0381740108132362
2170,-0.0666895881295204,0.0547477304935455,-0.0263327974826097
2180,-0.0454383008182048,0.0323713310062885,-0.0234849881380796
2190,-0.0158375315368175,-0.0046391515061259,-0.0356742776930332
2200,0.0241346806287765,-0.0405074767768383,-0.0561186149716377
2210,0.0629832819104194,-0.0589405484497547,-0.0798599049448967
2220,0.0664448142051696,-0.0612069070339202,-0.0818208456039428
2230,0.0372877269983291,-0.0543500669300556,-0.0774167776107788
2240,-0.010421235114336,-0.0141770057380199,-0.0934148654341697
2250,-0.0518227368593215,0.0248177964240312,-0.1062811315059661
2260,-0.081878937780857,0.0510164536535739,-0.1158250495791435
2270,-0.1018838062882423,0.0602440424263477,-0.1222448647022247
2280,-0.0934429913759231,0.0530102401971817,-0.1297674179077148
2290,-0.0584778226912021,0.040271807461977,-0.1453098952770233
2300,-0.029753141105175,0.0267712213099002,-0.1419027894735336
2310,-0.0120716169476509,0.0129510145634412,-0.1369775533676147
2320,-0.0028415117412805,-0.0095248697325587,-0.1341977566480636
2330,0.0116713847965002,-0.0139467818662524,-0.1659692674875259
2340,0.0260964687913656,-0.0218212828040123,-0.1984209418296814
2350,0.0327394567430019,-0.0246426351368427,-0.2173799872398376
2360,0.0377359874546527,-0.0224886089563369,-0.2176743000745773
2370,0.0341058336198329,-0.0319249890744686,-0.222740426659584
2380,0.0320679619908332,-0.028217339888215,-0.2474679201841354
2390,0.0132921431213617,-0.0026901422534137,-0.2645078897476196
2400,-0.0211426708847284,0.0005595777183771,-0.2647736966609955
2410,-0.0511090941727161,-0.0097346045076847,-0.2752111554145813
2420,-0.0531283095479011,-0.0308416746556758,-0.3125999867916107
2430,-0.0311207491904497,-0.0523048900067806,-0.3436335325241089
2440,-0.0054763709194958,-0.0655453279614448,-0.3768125176429748
2450,0.0047698747366666,-0.0612552426755428,-0.3999058604240417
2460,-0.0025360165163874,-0.0546945519745349,-0.4079737067222595
2470,-0.0335224270820617,-0.0431628003716468,-0.4210687279701233
2480,-0.0677783712744712,-0.021002547815442,-0.444630891084671
2490,-0.1079090163111686,0.0023504453711211,-0.4622828662395477
2500,-0.1353121399879455,0.0112913968041539,-0.4633429050445556
2510,-0.1409101039171219,0.0048478785902261,-0.4590424299240112
2520,-0.1130254715681076,-0.0239856354892253,-0.4595265686511993
2530,-0.0676076561212539,-0.0619628429412841,-0.4753577411174774
2540,-0.0307105295360088,-0.0828500762581825,-0.5063725709915161
2550,-0.0139834806323051,-0.0824769660830497,-0.5295774936676025
2560,-0.0259229205548763,-0.0587833449244499,-0.5183290839195251
2570,-0.0453006140887737,-0.0400426834821701,-0.4960615932941437
2580,-0.0590935051441192,-0.0187162980437278,-0.5042607188224792
2590,-0.0468139350414276,-0.0144997155293822,-0.5171192288398743
2600,-0.0345965921878814,-0.0127886952832341,-0.5296760201454163
2610,-0.0389993302524089,-0.0113796163350343,-0.5486785173416138
2620,-0.0444831177592277,-0.0072282161563634,-0.5630974173545837
2630,-0.0540976598858833,-0.0082356901839375,-0.5677813291549683
2640,-0.063828244805336,-0.0107220821082592,-0.5660766363143921
2650,-0.0509057901799678,-0.0173834469169378,-0.5699382424354553
2660,-0.0104289036244153,-0.0116932485252618,-0.574339747428894
2670,0.0582577511668205,-0.0017399499192833,-0.5738403797149658
2680,0.1170631423592567,-0.0092926248908042,-0.5770860910415649
2690,0.1474029272794723,-0.0119131747633218,-0.5935971736907959
2700,0.1389043480157852,-0.010333688929677,-0.604437530040741
2710,0.0996640101075172,-0.0098902732133865,-0.6063054800033569
2720,0.0575101636350154,0.0005622636526823,-0.6105024814605713
2730,0.0347478613257408,0.0525551550090312,-0.5922526121139526
2740,0.0093208374455571,0.0082120401784777,-0.5965731739997864
2750,-0.0239724032580852,-0.0342312902212142,-0.6349671483039856
2760,-0.0733713209629058,-0.0377953834831714,-0.6758860349655151
2770,-0.1388789415359497,-0.0638751909136772,-0.7066620588302612
2780,-0.1896826028823852,-0.0238141864538192,-0.6852214336395264
2790,-0.1788025349378585,0.0072412006556987,-0.6532608270645142
2800,-0.1048857569694519,0.0308919996023178,-0.6247695684432983
2810,0.0043363333679735,0.0330294519662857,-0.626595675945282
2820,0.0908260866999626,0.0298302490264177,-0.6102120280265808
2830,0.1426155120134353,-0.0348699167370796,-0.5884771943092346
2840,0.1548497527837753,-0.0876955166459083,-0.5963268280029297
2850,0.1206885874271392,-0.1130147203803062,-0.6254618167877197
2860,0.057178046554327,-0.1270686686038971,-0.6351271271705627
2870,-0.0067213056609034,-0.0725380480289459,-0.6194831728935242
2880,-0.0531890094280242,-0.0238210465759038,-0.6000702977180481
2890,-0.0617055296897888,0.0084561994299292,-0.5911964178085327
2900,-0.0375891476869583,0.0650822520256042,-0.5814837217330933
2910,-0.0173816122114658,0.0478867515921592,-0.5710739493370056
2920,0.004110150039196,0.0083327740430831,-0.5624637603759766
2930,0.0283265393227338,-0.0404539406299591,-0.5621660351753235
2940,0.059767510741949,-0.1109004169702529,-0.5713614225387573
2950,0.0821641609072685,-0.1324411332607269,-0.554561972618103
2960,0.090823158621788,-0.1579228639602661,-0.5422348380088806
2970,0.0782466456294059,-0.1532279849052429,-0.5512434840202332
2980,0.061046864837408,-0.110746145248413,-0.5861003994941711
2990,0.0271024778485298,-0.0478478744626045,-0.6270307898521423
3000,-0.0163517780601978,0.0247868336737155,-0.6392638683319092
3010,-0.0634638965129852,0.0487792529165744,-0.6579744219779968
3020,-0.0780740305781364,0.0727112963795661,-0.6739213466644287
3030,-0.0582779496908187,0.0455835349857807,-0.6844866871833801
3040,-0.0197594165802001,-0.0158510040491819,-0.6857423186302185
3050,0.0224724598228931,-0.0837336480617523,-0.6849263310432434
3060,0.024055853486061,-0.1252268999814987,-0.7040143013000488
3070,-0.0292089655995368,-0.1310365796089172,-0.7163082361221313
3080,-0.090162307024002,-0.0919120758771896,-0.7141737341880798
3090,-0.1264702528715133,-0.0321637913584709,-0.7075169086456299
3100,-0.122349664568901,0.0169141422957181,-0.7017154097557068
3110,-0.0874982103705406,0.0471644587814807,-0.7119259834289551
3120,-0.0201109200716018,0.0678932517766952,-0.715766966342926
3130,0.0559478960931301,0.0484974458813667,-0.7025643587112427
3140,0.1398562639951706,-0.0068301996216177,-0.6809608340263367
3150,0.1799147427082061,-0.0805709958076477,-0.6771354675292969
3160,0.1707694381475448,-0.1417941451072693,-0.7038648128509521
3170,0.1004582569003105,-0.1193495541810989,-0.7269715070724487
3180,-0.0155999977141618,-0.071070909500122,-0.7472032904624939
3190,-0.1262077242136001,0.0326035507023334,-0.7583765983581543
3200,-0.1890681535005569,0.1125505045056343,-0.7451660633087158
3210,-0.1749286353588104,0.1465958356857299,-0.708842396736145
3220,-0.0926677361130714,0.1152111366391182,-0.6976773738861084
3230,0.01970568113029,0.0562633983790874,-0.7015386819839478
3240,0.1097263544797897,-0.0376334637403488,-0.7030385136604309
3250,0.1356295943260193,-0.1317202746868133,-0.7020429968833923
3260,0.1122145876288414,-0.1737438887357711,-0.6940534710884094
3270,0.0638731494545936,-0.169254332780838,-0.6987763047218323
3280,0.0282766036689281,-0.1273576319217682,-0.7072109580039978
3290,-0.0047966609708964,-0.0595697909593582,-0.7127708196640015
3300,-0.0317233689129352,0.0023867818526923,-0.7186500430107117
3310,-0.0475425459444522,0.0484144613146781,-0.6892569661140442
3320,-0.0429863855242729,0.0537135191261768,-0.6528061032295227
3330,-0.0006666253320872,0.0287133622914552,-0.6464605927467346
3340,0.0731027945876121,0.0417146980762481,-0.6619687676429749
3350,0.1534937769174575,0.0194389540702104,-0.6446681022644043
3360,0.2254305332899093,-0.0250134691596031,-0.6137695908546448
3370,0.2771565914154053,-0.0750571936368942,-0.5678008198738098
3380,0.3258647322654724,-0.1242517456412315,-0.5262446403503418
3390,0.3609649240970611,-0.1780843436717987,-0.5142598748207092
3400,0.3691103160381317,-0.2025735676288604,-0.536450207233429
3410,0.3304462730884552,-0.1795278936624527,-0.5462319850921631
3420,0.2626990079879761,-0.1677718162536621,-0.5172246098518372
3430,0.1874947994947433,-0.1562938392162323,-0.5138700604438782
3440,0.1225484609603881,-0.0989349782466888,-0.538139820098877
3450,0.0707601010799408,-0.0373075604438781,-0.5273292660713196
3460,0.0206309352070093,0.0046864259056746,-0.4706119894981384
3470,-0.0439115725457668,0.0047617931850254,-0.4047107398509979
3480,-0.090063452720642,-0.0015894402749836,-0.375811904668808
3490,-0.0957860574126243,0.0005568014457821,-0.3884947001934051
3500,-0.0600856356322765,-0.0033073751255869,-0.4118154346942901
3510,-0.0062490352429449,-0.0150250177830457,-0.3983829617500305
3520,0.0366857945919036,-0.0638880282640457,-0.3624247014522552
3530,0.0664191842079162,-0.0963261276483535,-0.3243588209152221
3540,0.0624194778501987,-0.1384608596563339,-0.2845224142074585
3550,0.0031513613648712,-0.1563341319561004,-0.2645449936389923
3560,-0.1105058118700981,-0.1196847259998321,-0.250430554151535
3570,-0.2380373924970626,-0.0624941326677799,-0.2430251091718673
3580,-0.3366316258907318,0.0031851925887167,-0.224493071436882
3590,-0.3567456901073456,0.0569671988487243,-0.2268041670322418
3600,-0.2758490145206451,0.1117686331272125,-0.2449432462453842
3610,-0.1286922991275787,0.116997480392456,-0.238305315375328
3620,0.0225861873477697,0.0692808553576469,-0.2287227064371109
3630,0.1419807523488998,0.0228089615702629,-0.2300947606563568
3640,0.2096849977970123,-0.0326709859073162,-0.2390250116586685
3650,0.2177261561155319,-0.0907891541719436,-0.2445590645074844
3660,0.1577780246734619,-0.1304568797349929,-0.2432009130716323
3670,0.0734370350837707,-0.1326388120651245,-0.2640808820724487
3680,-0.0106065720319747,-0.081896923482418,-0.3123586475849151
3690,-0.0614082291722297,-0.001066259574145,-0.3574180006980896
3700,-0.0824861153960228,0.0709462240338325,-0.3634811639785766
3710,-0.0783928334712982,0.0987618714570999,-0.3468236029148102
3720,-0.0774644315242767,0.1125820130109787,-0.3351542353630066
3730,-0.0900870189070701,0.0725166201591491,-0.3441972732543945
3740,-0.1114074438810348,0.0265953075140714,-0.3636568486690521
3750,-0.1275350153446197,-0.0395765230059623,-0.3753497004508972
3760,-0.1373202353715896,-0.076596051454544,-0.4023093581199646
3770,-0.1516533643007278,-0.037620685994625,-0.4466845393180847
3780,-0.1669858247041702,0.0174052342772483,-0.4563301503658294
3790,-0.1836761236190796,0.070203997194767,-0.4334349334239959
3800,-0.1756970286369323,0.0990365296602249,-0.4445322453975677
3810,-0.1398916393518448,0.1060760617256164,-0.448470801115036
3820,-0.106114774942398,0.0510064139962196,-0.4354551434516907
3830,-0.0642118006944656,-0.0043471241369843,-0.4170417785644531
3840,-0.0088823772966861,-0.0768912360072135,-0.3880128264427185
3850,0.0542960613965988,-0.1519324630498886,-0.3642073571681976
3860,0.0829785987734794,-0.2109079658985138,-0.360324501991272
3870,0.0409421995282173,-0.2061531543731689,-0.3847691416740417
3880,-0.0440069735050201,-0.1348870396614074,-0.4003449082374573
3890,-0.1470555961132049,-0.0257557518780231,-0.4097325503826141
3900,-0.2248698621988296,0.0773137658834457,-0.4217138886451721
3910,-0.2507411539554596,0.1721249669790268,-0.4385131001472473
3920,-0.2195259630680084,0.2169444561004638,-0.4261543750762939
3930,-0.1659266501665115,0.1729186773300171,-0.4012117385864258
3940,-0.1055013388395309,0.0836014226078987,-0.3926289677619934
3950,-0.0434110723435878,-0.0240518059581518,-0.4084675908088684
3960,0.0048164501786231,-0.1318307965993881,-0.4708297848701477
3970,0.0345277413725853,-0.1643706262111663,-0.5240546464920044
3980,0.0398142077028751,-0.1452168673276901,-0.5236012935638428
3990,0.0278960280120372,-0.0963992625474929,-0.4973603785037994
4000,-0.0065251626074314,-0.0393290184438228,-0.472659558057785
4010,-0.0548444911837577,0.0011646142229437,-0.4541433751583099
4020,-0.108943335711956,0.0400922410190105,-0.4563093185424804
4030,-0.1300496906042099,0.0588499531149864,-0.4467357993125915
4040,-0.1139087527990341,0.0326467715203762,-0.4095871448516845
4050,-0.0597597695887088,-0.0190901923924684,-0.3793546557426452
4060,0.0042066676542162,-0.0679733976721763,-0.3819724321365356
4070,0.056751899421215,-0.1239136308431625,-0.3796155452728271
4080,0.0618524402379989,-0.1755034923553466,-0.3749191462993622
4090,0.0221638847142457,-0.2110079526901245,-0.4124254882335663
4100,-0.0259646400809288,-0.1995232254266739,-0.465790718793869
4110,-0.0545579344034194,-0.1822289228439331,-0.4539987742900848
4120,-0.0451543778181076,-0.1838569194078445,-0.3962002694606781
4130,-0.0097870649769902,-0.1905507743358612,-0.3616465628147125
4140,0.0288899205625057,-0.1891801655292511,-0.360125333070755
4150,0.0625144615769386,-0.1904089450836181,-0.3453392088413238
4160,0.0649533420801162,-0.2045929580926895,-0.3265341520309448
4170,0.0459277182817459,-0.2122165113687515,-0.3344219028949737
4180,0.0166240781545639,-0.1944232583045959,-0.3360418081283569
4190,-0.008620292879641,-0.183300033211708,-0.3061419725418091
4200,-0.0119220921769738,-0.1760760247707367,-0.2781962156295776
4210,0.0269198454916477,-0.170423999428749,-0.2829587459564209
4220,0.1062668189406395,-0.1498672515153885,-0.3020296096801758
4230,0.1797290444374084,-0.1567121148109436,-0.3083682060241699
4240,0.1897332221269607,-0.2017825692892074,-0.3247896730899811
4250,0.1348470747470855,-0.2760450839996338,-0.3277098536491394
4260,0.0465868413448333,-0.3618762195110321,-0.3288100063800812
4270,-0.052725363522768,-0.3979301154613495,-0.3635637164115906
4280,-0.1374054700136184,-0.362137883901596,-0.3881270885467529
4290,-0.1816301941871643,-0.276551604270935,-0.385956346988678
4300,-0.1759102642536163,-0.212358683347702,-0.3596056401729584
4310,-0.1155800819396972,-0.2219303548336029,-0.3300954103469848
4320,-0.027042968198657,-0.2908854484558105,-0.3210373818874359
4330,0.0162959843873977,-0.3545629382133484,-0.352373719215393
4340,-0.0112689100205898,-0.3409871459007263,-0.4090605080127716
4350,-0.0701231658458709,-0.1980968415737152,-0.4687366187572479
4360,-0.1144486963748931,0.0112049970775842,-0.4705748260021209
4370,-0.0944864451885223,0.1998862326145172,-0.4061324596405029
4380,0.0004355385899543,0.2936908602714538,-0.3344917595386505
4390,0.1366288065910339,0.2721535861492157,-0.3196326494216919
4400,0.2507108449935913,0.155907928943634,-0.3455431759357452
4410,0.3143782317638397,-0.0007458720356225,-0.3819131553173065
4420,0.2817201614379883,-0.1548599600791931,-0.3922290205955505
4430,0.1765570044517517,-0.2742230892181396,-0.3905192911624908
4440,0.0562970638275146,-0.302234798669815,-0.4232225120067596
4450,-0.0412981994450092,-0.2265919893980026,-0.4574513137340545
4460,-0.0924988761544227,-0.1275369822978973,-0.4468207955360412
4470,-0.1116057261824607,-0.0118186324834823,-0.4105226993560791
4480,-0.1014873385429382,0.0564542412757873,-0.3753342926502228
4490,-0.0748687833547592,0.0519468411803245,-0.348978042602539
4500,-0.0522680059075355,-0.0025317179970443,-0.3411297500133514
4510,-0.0836232677102088,-0.0912136510014534,-0.3622715175151825
4520,-0.1592315286397934,-0.1327772736549377,-0.4018351435661316
4530,-0.2550568580627441,-0.1291383206844329,-0.4202455878257751
4540,-0.3174726068973541,-0.0721213072538375,-0.4009666442871094
4550,-0.3103491961956024,-0.0176468808203935,-0.3463143408298492
4560,-0.22508405148983,0.0113380113616585,-0.2989842593669891
4570,-0.0737541913986206,0.0217704102396965,-0.2825141847133636
4580,0.0889152884483337,0.0302197728306055,-0.2644597291946411
4590,0.1742711961269378,-0.0212330315262079,-0.2200805395841598
4600,0.1728050410747528,-0.0967552363872528,-0.1895826756954193
4610,0.1441502273082733,-0.1330211013555526,-0.1840259879827499
4620,0.1371629387140274,-0.1429275274276733,-0.2218606621026992
4630,0.1514691710472107,-0.117606982588768,-0.2378057986497879
4640,0.1569943577051162,-0.0780413150787353,-0.2174045741558075
4650,0.1225101426243782,-0.0574910342693328,-0.2172285467386245
4660,0.078205831348896,-0.0094013456255197,-0.2418865412473678
4670,0.0294318944215774,0.0485080257058143,-0.2231466770172119
4680,-0.0199162829667329,0.0400613434612751,-0.1771445721387863
4690,-0.0620999559760093,0.0314630605280399,-0.1498799324035644
4700,-0.0739629343152046,0.0070830886252224,-0.1282473355531692
4710,-0.0663188621401786,-0.0549832135438919,-0.1227673441171646
4720,-0.0480871833860874,-0.0830370485782623,-0.1386173218488693
4730,-0.0227386839687824,-0.082862876355648,-0.1669996827840805
4740,-0.0086104003712534,-0.073499396443367,-0.1683677434921264
4750,-0.0195157788693904,-0.0319684632122516,-0.1642709970474243
4760,-0.0341663248836994,0.0355829708278179,-0.1441128551959991
4770,-0.0471942424774169,0.0853436067700386,-0.1087058633565902
4780,-0.0526862256228923,0.1089117005467414,-0.0705141127109527
4790,-0.0454232543706893,0.1169110387563705,-0.0385572500526905
4800,-0.0376440696418285,0.0988230481743812,0.0014152405783534
4810,-0.0266734436154365,0.0664816200733184,0.0272953063249588
4820,0.0009580687619745,0.0276058949530124,0.0391532443463802
4830,0.0506510585546493,-0.0342295095324516,0.0429202876985073
4840,0.1111554577946662,-0.0923969149589538,0.0272196661680936
4850,0.1685697436332702,-0.1041766107082367,-0.0308574847877025
4860,0.2134097665548324,-0.0674026682972908,-0.0460169278085231
4870,0.2465570718050003,-0.0176588147878646,-0.0056559238582849
4880,0.2635332643985748,0.0374748855829238,0.0310182459652423
4890,0.2823162972927093,0.0787299126386642,0.0396679267287254
4900,0.304458737373352,0.0817249566316604,0.0293046701699495
4910,0.3044022917747497,0.0561117380857467,0.0074102897197008
4920,0.2678817212581634,0.0280347857624292,-0.0217261612415313
4930,0.1834142357110977,-0.0131419468671083,-0.0656507387757301
4940,0.0701501816511154,-0.0442961566150188,-0.1437999904155731
4950,-0.0350912883877754,-0.0389274917542934,-0.2238644659519195
4960,-0.0964881926774978,0.0041242418810725,-0.2459708154201507
4970,-0.0881130769848823,0.0579943992197513,-0.2080785632133484
4980,-0.0084798838943243,0.0981080532073974,-0.1596157550811767
4990,0.1031209453940391,0.0921401754021644,-0.1376127302646637
5000,0.1879176646471023,0.0398944802582263,-0.1365280002355575
5010,0.1722074151039123,-0.0100405886769294,-0.1301870197057724
5020,0.0360612533986568,-0.0434734895825386,-0.1183233112096786
5030,-0.1723393499851226,-0.0532646030187606,-0.1192287802696228
5040,-0.3656450510025024,0.0016964334063231,-0.1268963813781738
5050,-0.4776714444160461,0.0660653039813041,-0.1180728003382682
5060,-0.4748426079750061,0.1460451036691665,-0.0946955159306526
5070,-0.3687414526939392,0.2265263646841049,-0.0679254159331321
5080,-0.1787973195314407,0.2908815741539001,-0.0478316508233547
5090,0.0297734644263982,0.2979085743427276,-0.029622821137309
5100,0.2127601206302642,0.2108614146709442,-0.0081346798688173
5110,0.3423175811767578,0.0654421746730804,-0.0158932674676179
5120,0.3984288275241852,-0.1087100878357887,-0.050131756812334
5130,0.3708685934543609,-0.246138259768486,-0.076697327196598
5140,0.2528054416179657,-0.3101040422916412,-0.0890160575509071
5150,0.0632717385888099,-0.2646878361701965,-0.105934590101242
5160,-0.1205062046647071,-0.1174545809626579,-0.1238422021269798
5170,-0.272596925497055,0.0829821154475212,-0.1501398533582687
5180,-0.358546108007431,0.2852461040019989,-0.1555719673633575
5190,-0.3859250247478485,0.3769041299819946,-0.129219189286232
5200,-0.3450415730476379,0.3321219086647033,-0.1014617905020713
5210,-0.2433133572340011,0.1918763667345047,-0.1041044443845748
5220,-0.1081268116831779,-0.0005577174015343,-0.1343952119350433
5230,0.0198916029185056,-0.1520068943500518,-0.1599509119987487
5240,0.1038028299808502,-0.2269968539476394,-0.1732814311981201
5250,0.1090391352772712,-0.220586895942688,-0.2047346979379654
5260,0.0452051945030689,-0.1044148802757263,-0.2142205685377121
5270,-0.0699999555945396,0.0493366010487079,-0.1810940355062484
5280,-0.1975868493318557,0.1933043599128723,-0.1589221209287643
5290,-0.2778225541114807,0.2893416881561279,-0.1590912342071533
5300,-0.2653468251228332,0.3233211934566498,-0.1605337262153625
5310,-0.1630742400884628,0.2732830643653869,-0.1520323753356933
5320,-0.0103648481890559,0.1592113673686981,-0.152650773525238
5330,0.1357870250940323,0.0056143403053283,-0.1916863173246383
5340,0.2113205194473266,-0.1231618076562881,-0.2505876421928406
5350,0.1967631578445434,-0.2061024904251098,-0.2707307338714599
5360,0.1058814823627471,-0.2216105163097381,-0.2851409614086151
5370,-0.0065542487427592,-0.152471125125885,-0.2874605655670166
5380,-0.0915690809488296,-0.0241888929158449,-0.2602054476737976
5390,-0.1192968487739563,0.0748820304870605,-0.240075945854187
5400,-0.1052163392305374,0.1529296338558197,-0.237273171544075
5410,-0.0677344799041748,0.1460123509168625,-0.2590751349925995
5420,-0.0603915899991989,0.106811948120594,-0.2868345379829407
5430,-0.0873217433691024,0.0448223464190959,-0.2908098399639129
5440,-0.1258508116006851,-0.0002569104544818,-0.2890476286411285
5450,-0.1911371350288391,-0.0032401834614574,-0.2979220747947693
5460,-0.1989900022745132,-0.0559966824948787,-0.2787740230560303
5470,-0.1391929686069488,-0.0395191721618175,-0.2840502858161926
5480,-0.0290064811706542,-0.0493808463215827,-0.3067618906497955
5490,0.0720831155776977,-0.065696969628334,-0.311915636062622
5500,0.1301383972167968,-0.097704529762268,-0.3282105922698974
5510,0.1262182295322418,-0.1238525062799453,-0.3512972891330719
5520,0.0740324035286903,-0.1293306648731231,-0.3787298500537872
5530,0.0195763576775789,-0.0881930962204933,-0.4099466204643249
5540,-0.0241558421403169,-0.0241292957216501,-0.414295345544815
5550,-0.0420927628874778,0.0198653265833854,-0.4073535501956939
5560,-0.0604928135871887,0.0852331519126892,-0.4071039855480194
5570,-0.0587332621216774,0.106054276227951,-0.3855121433734894
5580,-0.0356450378894805,0.0905209183692932,-0.3578381836414337
5590,-0.0068117906339466,0.0142469266429543,-0.3614582121372223
5600,0.0268959626555442,-0.0527253188192844,-0.3847989737987518
5610,0.0406453311443328,-0.0904884114861488,-0.3943676948547363
5620,0.0214379578828811,-0.1022455990314483,-0.3907183706760406
5630,-0.0091993138194084,-0.067108653485775,-0.3903151750564575
5640,-0.017332024872303,-0.0107066966593265,-0.3777088224887848
5650,-0.0034361835569143,0.0224525872617959,-0.3631485402584076
5660,0.0249284375458955,0.0186855904757976,-0.3955806791782379
5670,0.0199824143201112,0.007959708571434,-0.4829161167144775
5680,-0.0262406971305608,-0.014381643384695,-0.5481182932853699
5690,-0.1073576509952545,-0.0554846078157424,-0.5877594947814941
5700,-0.1819507479667663,-0.0062050390988588,-0.6258593797683716
5710,-0.2453875094652176,0.088612288236618,-0.6637409925460815
5720,-0.2650747895240783,0.1669695377349853,-0.6620908975601196
5730,-0.2280549854040146,0.1959913372993469,-0.6449505090713501
5740,-0.1735740154981613,0.16202312707901,-0.6417511701583862
5750,-0.1298363953828811,0.1182657927274704,-0.6538134217262268
5760,-0.117756076157093,0.0640338584780693,-0.6775234937667847
5770,-0.1276254802942276,-0.0012151864357292,-0.7183449864387512
5780,-0.1405964642763137,0.0022928803227841,-0.7569745182991028
5790,-0.1659223288297653,0.0607687085866928,-0.7713801264762878
5800,-0.1869700402021408,0.1470597684383392,-0.7586771845817566
5810,-0.192632183432579,0.2779155075550079,-0.7747485637664795
5820,-0.2331474870443344,0.3984707593917846,-0.7782299518585205
5830,-0.2556568086147308,0.4333254098892212,-0.7725794911384583
5840,-0.2446157932281494,0.4340054392814636,-0.7807013988494873
5850,-0.1957332044839859,0.4084718525409698,-0.7950441241264343
5860,-0.1464784294366836,0.361458271741867,-0.8155340552330017
5870,-0.1114016622304916,0.3081005215644836,-0.7911427021026611
5880,-0.0978684425354003,0.2107051312923431,-0.7445514798164368
5890,-0.0917833819985389,0.0864505544304847,-0.7152034640312195
5900,-0.0789933130145073,-0.0393944643437862,-0.7413275241851807
5910,-0.0977030843496322,-0.0549555793404579,-0.7817343473434448
5920,-0.1602991670370102,-0.0907394289970398,-0.7981382012367249
5930,-0.2182024121284485,-0.0740360841155052,-0.8205545544624329
5940,-0.2293024361133575,0.0325708761811256,-0.8425363898277283
5950,-0.1859174072742462,0.1217859759926796,-0.8333261013031006
5960,-0.1062014624476432,0.1827644854784011,-0.7744354605674744
5970,-0.0247545409947633,0.1712692230939865,-0.6823515892028809
5980,0.0378903187811374,0.1025246456265449,-0.5912456512451172
5990,0.0488311201333999,-0.0131548149511218,-0.5351837277412415
6000,0.0391147918999195,-0.1586181968450546,-0.5666881203651428
6010,0.0143756214529275,-0.1806633174419403,-0.671207070350647
6020,-0.0589554943144321,-0.1332524567842483,-0.7369506359100342
6030,-0.1746807694435119,-0.0579305328428745,-0.7346928119659424
6040,-0.2625662684440613,0.0765267461538314,-0.7276498079299927
6050,-0.2794813215732574,0.166219875216484,-0.7493699789047241
6060,-0.2096242606639862,0.2376969754695892,-0.7828510403633118
6070,-0.0937679633498191,0.2787184715270996,-0.7628834843635559
6080,0.0453862696886062,0.2406402379274368,-0.709080159664154
6090,0.1848219186067581,0.1675742864608764,-0.6980165839195251
6100,0.3012363314628601,0.0693416073918342,-0.7344168424606323
6110,0.3499301075935364,-0.0233369302004575,-0.7264007329940796
6120,0.3368435502052307,-0.1692017316818237,-0.6909950971603394
6130,0.2702536284923553,-0.2726761996746063,-0.6596060395240784
6140,0.158415213227272,-0.2366697192192077,-0.6627190709114075
6150,0.0584768913686275,-0.1911776065826416,-0.7156296968460083
6160,-0.0051630991511046,-0.0724160000681877,-0.7938730120658875
6170,-0.0315281264483928,0.0564716756343841,-0.851890504360199
6180,-0.0415464118123054,0.1176890432834625,-0.8848944902420044
6190,-0.0478700883686542,0.1093538850545883,-0.9217406511306764
6200,-0.0304079595953226,0.1075931936502456,-0.961355686187744
6210,-0.0137259177863597,0.0930265039205551,-0.9901815056800842
6220,-0.0392299965023994,0.07901381701231,-0.9893606901168824
6230,-0.1007910966873169,0.0664439648389816,-0.9502769708633424
6240,-0.1548949182033538,0.0626002848148346,-0.9102936387062072
6250,-0.1490956246852874,0.084024079144001,-0.9118622541427612
6260,-0.0985270515084266,0.1020461097359657,-0.9210140705108644
6270,-0.0773871466517448,0.1112430691719055,-0.9589194059371948
6280,-0.1022344902157783,0.1417654603719711,-1.0277824401855469
6290,-0.1500925570726394,0.2032264322042465,-1.1057417392730713
6300,-0.167308822274208,0.2271936237812042,-1.148174524307251
6310,-0.1490344703197479,0.2042520940303802,-1.158489465713501
6320,-0.106833316385746,0.1569435000419616,-1.1788705587387085
6330,-0.0736884102225303,0.1361215710639953,-1.2047079801559448
6340,-0.0738617181777954,0.1005315482616424,-1.187244534492493
6350,-0.1106839105486869,0.052625011652708,-1.1386314630508425
6360,-0.1248024776577949,0.0155993308871984,-1.086376667022705
6370,-0.0998957976698875,-0.0090985586866736,-1.024084448814392
6380,-0.0306746065616607,-0.0319362208247184,-1.0035018920898438
6390,0.0345238372683525,-0.0193000547587871,-1.0330137014389038
6400,0.0664045140147209,0.0085223298519849,-1.046247482299805
6410,0.0430049113929271,0.0117665920406579,-1.0437179803848269
6420,-0.025118913501501,0.017724210396409,-1.0761497020721436
6430,-0.1050901785492897,0.0674126744270324,-1.112353801727295
6440,-0.161120131611824,0.0568609647452831,-1.0948305130004885
6450,-0.1925600916147232,0.073597066104412,-1.0382630825042725
6460,-0.2078666388988495,0.071328580379486,-1.017992377281189
6470,-0.1859229952096939,0.0694979280233383,-1.035899996757507
6480,-0.1095312088727951,0.0616836100816726,-1.0772589445114136
6490,0.0020104928407818,0.0406374484300613,-1.1179161071777344
6500,0.1163503006100654,-0.0244258306920528,-1.1348471641540527
6510,0.2011141926050186,-0.073455162346363,-1.1355501413345337
6520,0.2377098351716995,-0.1142949610948562,-1.1166431903839111
6530,0.2196578681468963,-0.1512215435504913,-1.078090786933899
6540,0.1744912713766098,-0.1638028472661972,-1.0181500911712646
6550,0.1106752827763557,-0.1491453349590301,-0.9582526683807372
6560,0.0684941560029983,-0.1105944216251373,-0.928002655506134
6570,0.0538606196641922,-0.0557668581604957,-0.9422149062156676
6580,0.047125719487667,-0.0019823820330202,-0.98563551902771
6590,0.0406441204249858,0.030159842222929,-1.0345325469970703
6600,0.0269864294677972,0.0379671789705753,-1.0419706106185913
6610,0.0121230613440275,-0.0190678779035806,-1.0020445585250854
6620,0.0186133868992328,-0.1011521071195602,-0.9661840796470642
6630,0.0403570309281349,-0.1576012670993805,-0.9702150225639344
6640,0.0583999939262867,-0.1777491420507431,-0.9852972626686096
6650,0.0362843014299869,-0.2046087235212326,-0.976460099220276
6660,0.0283861011266708,-0.1803766191005706,-0.9463901519775392
6670,0.0355577282607555,-0.1539202481508255,-0.9328791499137878
6680,0.063810296356678,-0.1391911506652832,-0.9372705817222596
6690,0.1133554801344871,-0.1426114588975906,-0.9083537459373474
6700,0.1269917339086532,-0.1573633849620819,-0.8668153882026672
6710,0.0768899619579315,-0.1663012206554412,-0.8558908700942993
6720,-0.0107562411576509,-0.1115054190158844,-0.8494066596031189
6730,-0.0954186618328094,-0.0536455810070037,-0.8146592974662781
6740,-0.1528538018465042,-0.0618471726775169,-0.7750418186187744
6750,-0.1674199700355529,-0.0655716061592102,-0.7531548738479614
6760,-0.1311409324407577,-0.110367439687252,-0.75043123960495
6770,-0.0578134581446647,-0.145436480641365,-0.7700033783912659
6780,0.0492296479642391,-0.1457425504922866,-0.7977956533432007
6790,0.1556583493947982,-0.1525866091251373,-0.822730302810669
6800,0.259658008813858,-0.1627269387245178,-0.8467105031013489
6810,0.3468949198722839,-0.1802228391170501,-0.8966631889343262
6820,0.3958834409713745,-0.2394167780876159,-0.9377865195274352
6830,0.3876571953296661,-0.3112336993217468,-0.9610817432403564
6840,0.3201143741607666,-0.3416912257671356,-0.9726552963256836
6850,0.2181121110916137,-0.3477179408073425,-0.9777003526687622
6860,0.1121032238006591,-0.3375538885593414,-0.9719045758247375
6870,0.0235243570059537,-0.2944556772708893,-0.9602348804473876
6880,-0.0244326256215572,-0.2586236894130707,-0.9450398683547974
6890,-0.0208674520254135,-0.2142599374055862,-0.947844386100769
6900,0.0254898034036159,-0.1804573684930801,-0.9479706287384032
6910,0.0849579274654388,-0.1401746571063995,-0.938498556613922
6920,0.1324896216392517,-0.1210885345935821,-0.9075737595558168
6930,0.1606464236974716,-0.1203481703996658,-0.8454707264900208
6940,0.1693410873413086,-0.1375869363546371,-0.7789692878723145
6950,0.1607465296983719,-0.1756775975227356,-0.7422134280204773
6960,0.1180041134357452,-0.2253603637218475,-0.7570170760154724
6970,0.0274321362376213,-0.2696007788181305,-0.828103244304657
6980,-0.1234174370765686,-0.2557856142520904,-0.8993532657623291
6990,-0.2625225782394409,-0.203239306807518,-0.941955864429474
7000,-0.310756653547287,-0.1275566816329956,-0.936223030090332
7010,-0.2308533191680908,-0.0442205183207988,-0.9100947380065918
7020,-0.0634483993053436,0.0236162021756172,-0.8653074502944946
7030,0.126637116074562,-0.0607548728585243,-0.7930968999862671
7040,0.2966614067554474,-0.1975592970848083,-0.7108360528945923
7050,0.3763807117938995,-0.3045621514320373,-0.6520938873291016
7060,0.3330190181732178,-0.418895423412323,-0.6002310514450073
7070,0.1880285441875457,-0.5029224157333374,-0.5169692039489746
7080,0.0096766976639628,-0.5419149994850159,-0.4547397792339325
7090,-0.1477914899587631,-0.4413063824176788,-0.5760962963104248
7100,-0.2174108475446701,-0.1959174871444702,-0.7505543231964111
7110,-0.1832805722951889,0.0372036434710025,-0.826774537563324
7120,-0.1124522760510444,0.175871655344963,-0.7925853133201599
7130,-0.0310274604707956,0.1950040757656097,-0.692458987236023
7140,0.0684067010879516,0.0655221566557884,-0.611227810382843
7150,0.1349148899316787,-0.0940898731350898,-0.5998857021331787
7160,0.101063072681427,-0.1944583356380462,-0.6188992261886597
7170,-0.0427476242184639,-0.2328677773475647,-0.6349530220031738
7180,-0.2160055041313171,-0.2102944999933242,-0.6043184399604797
7190,-0.310232400894165,-0.135835975408554,-0.560821533203125
7200,-0.275152325630188,-0.0425917282700538,-0.520205020904541
7210,-0.1555415093898773,-0.0105565646663308,-0.452549010515213
7220,-0.0147515945136547,-0.0377697981894016,-0.4239298105239868
7230,0.0930960476398468,-0.0486016757786273,-0.455253392457962
7240,0.1257268041372299,-0.0648012086749076,-0.4460033774375915
7250,0.06504987180233,-0.1014226004481315,-0.3712215423583984
7260,-0.0395974367856979,-0.1409660875797271,-0.2886426150798797
7270,-0.1377341151237487,-0.1601712107658386,-0.3029275238513946
7280,-0.1649564504623413,-0.0891132056713104,-0.3792707026004791
7290,-0.147193431854248,0.0076223877258598,-0.3819855451583862
7300,-0.12882961332798,0.0485000424087047,-0.3114038109779358
7310,-0.1273238658905029,0.0440621487796306,-0.2415277957916259
7320,-0.095476783812046,0.0285166539251804,-0.2625602781772613
7330,-0.0150666292756795,0.0150714181363582,-0.3074787557125091
7340,0.0823984444141388,-0.0304475892335176,-0.2998154461383819
7350,0.1512206494808197,-0.1038514971733093,-0.2588123679161072
7360,0.181528553366661,-0.1388203203678131,-0.2423149645328521
7370,0.1969064325094223,-0.1106845438480377,-0.2473989278078079
7380,0.1989764422178268,-0.0364405028522014,-0.2345171570777893
7390,0.1782839447259903,0.0208502169698476,-0.1780224442481994
7400,0.1407654881477356,0.06071263179183,-0.1054075062274932
7410,0.0731430351734161,0.0532331392168998,-0.0679943561553955
7420,-0.0149076264351606,-0.0040646423585712,-0.0540487617254257
7430,-0.1039975583553314,-0.0270626358687877,-0.0631397292017936
7440,-0.1848167479038238,-0.051511064171791,-0.0934492200613021
7450,-0.2382394820451736,-0.0529092252254486,-0.1533341258764267
7460,-0.2311344146728515,-0.0306984521448612,-0.1853466182947158
7470,-0.1704638749361038,-0.055997684597969,-0.1733440160751342
7480,-0.0583588257431983,-0.1225469410419464,-0.1727405190467834
7490,0.0678838044404983,-0.1851570606231689,-0.1965212076902389
7500,0.1448775976896286,-0.2583318948745727,-0.2361551374197006
7510,0.1149977296590805,-0.2932027876377105,-0.2553752064704895
7520,-0.0414102002978324,-0.310230016708374,-0.267028659582138
7530,-0.2545115649700165,-0.2750387489795685,-0.263187050819397
7540,-0.4474696516990661,-0.1926077306270599,-0.2526282072067261
7550,-0.5535374879837036,-0.0713950172066688,-0.2162749767303466
7560,-0.5302602648735046,0.0260174963623285,-0.1160436794161796
7570,-0.3819859027862549,0.0613099709153175,0.0224817115813493
7580,-0.1413433849811554,0.0099160391837358,0.1599208861589431
7590,0.1203792989253997,-0.110268697142601,0.239880695939064
7600,0.3198197782039642,-0.2488594800233841,0.2227133512496948
7610,0.3950700461864471,-0.3349655866622925,0.1922670304775238
7620,0.3361258804798126,-0.412188708782196,0.1670574247837066
7630,0.1723159253597259,-0.4241004884243011,0.0681612193584442
7640,-0.0217893347144126,-0.3521212935447693,-0.0697600394487381
7650,-0.1878201216459274,-0.2159815579652786,-0.1835326850414276
7660,-0.2766304910182953,-0.0674468725919723,-0.2312254011631012
7670,-0.2673589885234833,0.0819010734558105,-0.2088710814714431
7680,-0.1837916672229766,0.1839776933193206,-0.1491499245166778
7690,-0.0537050478160381,0.1808546185493469,-0.0755912736058235
7700,0.0391514115035533,0.0895888954401016,-0.0443427823483943
7710,0.0490623675286769,-0.0062955585308372,-0.0699219107627868
7720,-0.0268838815391063,-0.0499913915991783,-0.1352826654911041
7730,-0.1389145404100418,-0.0351218990981578,-0.1805777102708816
7740,-0.2272830605506897,0.0199097357690334,-0.1872826963663101
7750,-0.2617645859718323,0.1101192608475685,-0.1456319242715835
7760,-0.2350816279649734,0.1984961479902267,-0.0974474772810936
7770,-0.130486249923706,0.2690946757793426,-0.0653348118066787
7780,0.0303084645420312,0.2879622876644134,-0.0171621032059192
7790,0.2007877975702285,0.193196102976799,0.0328113138675689
7800,0.338590532541275,0.0611911453306674,0.0117777977138757
7810,0.4058063328266144,-0.0506206043064594,-0.0621736571192741
7820,0.3754897117614746,-0.1178067177534103,-0.1221988126635551
7830,0.2539081871509552,-0.1548267900943756,-0.1412742286920547
7840,0.0710391402244567,-0.1219783499836921,-0.1763000637292862
7850,-0.1017797738313674,-0.0046485336497426,-0.2211157381534576
7860,-0.1975758224725723,0.1385517716407776,-0.2366372048854828
7870,-0.2151910364627838,0.2432613968849182,-0.1971936523914337
7880,-0.1827084571123123,0.2957297563552856,-0.1199285760521888
7890,-0.1244376897811889,0.3157138526439667,-0.0236838050186634
7900,-0.0478705205023288,0.2544017434120178,0.0543142631649971
7910,0.0593414194881916,0.144608125090599,0.0857006832957267
7920,0.1875641644001007,0.0620735101401805,0.0293535254895687
7930,0.2848944664001465,-0.0289711784571409,-0.0288525223731994
7940,0.3153367042541504,-0.1149089261889457,-0.0541680045425891
7950,0.2604225873947143,-0.131690576672554,-0.0880050584673881
7960,0.135714903473854,-0.0601446889340877,-0.1206821203231811
7970,-0.0254526790231466,0.0459644384682178,-0.1071836203336715
7980,-0.1798112541437149,0.1533672660589218,-0.057627186179161
7990,-0.2638281285762787,0.2199960947036743,0.0109662562608718
8000,-0.2227662950754165,0.2430609911680221,0.0857075080275535
8010,-0.0397320352494716,0.2098071575164795,0.1460360884666443
8020,0.2378244996070861,0.1543913185596466,0.1369582116603851
8030,0.5122067928314209,0.1037174761295318,0.0783926323056221
8040,0.6831964254379272,-0.0057816430926322,0.0093193277716636
8050,0.6934056878089905,-0.1080989614129066,-0.0479865707457065
8060,0.5546505451202393,-0.1929959952831268,-0.0917102545499801
8070,0.3247289359569549,-0.2208079099655151,-0.1092381179332733
8080,0.0693605691194534,-0.1643175482749939,-0.105118528008461
8090,-0.1411226391792297,-0.0342828556895256,-0.1310705095529556
8100,-0.2682881951332092,0.0868661478161811,-0.1455159783363342
8110,-0.2759317457675934,0.1760546118021011,-0.1376593858003616
8120,-0.1444955319166183,0.2220358401536941,-0.1204768940806388
8130,0.0819685012102127,0.1801626831293106,-0.0820666551589965
8140,0.3356411159038543,0.0693730190396308,-0.0577346011996269
8150,0.5258161425590515,-0.0716962143778801,-0.0390440039336681
8160,0.5974359512329102,-0.1987423449754715,-0.0329970456659793
8170,0.589164137840271,-0.2167817950248718,-0.0283085517585277
8180,0.5351402163505554,-0.1553443223237991,-0.0348308756947517
8190,0.4587538242340088,-0.1209668964147567,-0.0075848745182156
8200,0.3325642645359039,-0.0713304281234741,-0.0058497870340943
8210,0.1571272015571594,-0.0189026407897472,-0.0494558550417423
8220,-0.0386353768408298,0.0804212838411331,-0.0897678583860397
8230,-0.2080244123935699,0.1954469382762909,-0.0592213980853557
8240,-0.2900797724723816,0.2343721836805343,0.0167791619896888
8250,-0.2664130330085754,0.2092066407203674,0.072273850440979
8260,-0.1786988675594329,0.1201965287327766,0.070089466869831
8270,-0.0553039610385894,0.0331005081534385,0.0130416275933384
8280,0.0906184464693069,-0.0360300727188587,-0.0180053822696208
8290,0.2390715628862381,-0.1052325814962387,-0.0099964579567313
8300,0.3732774257659912,-0.1852505654096603,0.0003163369838148
8310,0.4914400279521942,-0.2295173555612564,-0.0290844291448593
8320,0.5520111322402954,-0.2450045794248581,-0.0586801059544086
8330,0.5131707787513733,-0.2370907366275787,-0.0693276897072792
8340,0.3544239997863769,-0.1712532192468643,-0.0672419518232345
8350,0.146382674574852,-0.0547766722738742,-0.0575336702167987
8360,-0.0362901762127876,0.0631429627537727,-0.0568495579063892
8370,-0.1377446204423904,0.1643992811441421,-0.0909547954797744
8380,-0.1441671997308731,0.2149959355592727,-0.121030181646347
8390,-0.0802462771534919,0.1835820972919464,-0.1130233854055404
8400,-0.0011680987663567,0.0612950064241886,-0.0839988216757774
8410,0.0593245401978492,-0.0842067971825599,-0.1267137974500656
8420,0.0826134011149406,-0.1395343095064163,-0.2242632806301117
8430,0.0374389998614788,-0.1494133025407791,-0.2964043319225311
8440,-0.0834122002124786,-0.156368538737297,-0.3329705893993377
8450,-0.2304365336894989,-0.1061027199029922,-0.3433963358402252
8460,-0.3414510488510132,-0.0034703745041042,-0.3372813761234283
8470,-0.3706560730934143,0.0718033388257026,-0.3072004318237304
8480,-0.3340710699558258,0.1033989265561103,-0.2426707148551941
8490,-0.2839125394821167,0.0819413065910339,-0.1791335493326187
8500,-0.229621022939682,0.0014915852807462,-0.1524218767881393
8510,-0.1781852543354034,-0.0731163397431373,-0.2022525519132614
8520,-0.1236923113465309,-0.1348826289176941,-0.2450258433818817
8530,-0.0760965645313263,-0.1842882633209228,-0.2290908098220825
8540,-0.0433693751692771,-0.1668387502431869,-0.2301844805479049
8550,-0.0181047655642032,-0.1034933403134346,-0.2308010011911392
8560,-0.0097447074949741,-0.0430365987122058,-0.2195175439119339
8570,-0.0461812764406204,0.0159359071403741,-0.1982902884483337
8580,-0.1222615763545036,0.0615611262619495,-0.1670087724924087
8590,-0.2108955532312393,0.0779768452048301,-0.1346811950206756
8600,-0.2917787432670593,0.0624231807887554,-0.1151480227708816
8610,-0.3271604478359222,0.027322981506586,-0.1176372766494751
8620,-0.3108269870281219,-0.0226298458874225,-0.0934668481349945
8630,-0.2474115490913391,-0.1435496062040329,-0.0878113582730293
8640,-0.1473098993301391,-0.1872775256633758,-0.1719929277896881
8650,-0.0534222908318042,-0.1813669055700302,-0.2399410754442215
8660,-0.0243957936763763,-0.1931465417146682,-0.2419051975011825
8670,-0.1009928360581398,-0.1744482219219207,-0.225988820195198
8680,-0.2192996442317962,-0.125168964266777,-0.2032302618026733
8690,-0.3187588453292846,-0.0465910620987415,-0.1797595620155334
8700,-0.3445097804069519,0.0494055896997451,-0.1553502678871154
8710,-0.2974530458450317,0.102584920823574,-0.1250208616256714
8720,-0.2159933894872665,0.043295033276081,-0.1140323653817176
8730,-0.1114800348877906,-0.0533356331288814,-0.1493509411811828
8740,0.0047018537297844,-0.1799806058406829,-0.2200637906789779
8750,0.1162600740790367,-0.2993847727775574,-0.2987857758998871
8760,0.1407255232334137,-0.3823164701461792,-0.3489035367965698
8770,0.0117129422724246,-0.4309873282909393,-0.3812985122203827
8780,-0.2053523957729339,-0.3359831869602203,-0.3672316968441009
8790,-0.4030894339084625,-0.1544898301362991,-0.2963292896747589
8800,-0.5179498791694641,0.0226937588304281,-0.244655579328537
8810,-0.5009989142417908,0.176997572183609,-0.2235228717327118
8820,-0.3799513876438141,0.2446328699588775,-0.22323077917099
8830,-0.2106795310974121,0.1958490759134292,-0.2219455391168594
8840,-0.0295351613312959,0.075157344341278,-0.2004991769790649
8850,0.1184564307332038,-0.1155574768781662,-0.1822655797004699
8860,0.159777358174324,-0.3626278638839721,-0.2455699890851974
8870,0.0988405123353004,-0.4741874039173126,-0.3417673707008362
8880,-0.041701603680849,-0.4353159070014953,-0.374390184879303
8890,-0.230250746011734,-0.2902069091796875,-0.3681823313236236
8900,-0.4128354489803314,-0.0706058293581008,-0.3328472375869751
8910,-0.5226940512657166,0.1573823392391204,-0.2938923835754394
8920,-0.5326460599899292,0.2842740416526794,-0.2675672471523285
8930,-0.4278586506843567,0.3010354340076446,-0.2558426856994629
8940,-0.2695569694042206,0.2158941626548767,-0.2569256126880646
8950,-0.1074114739894867,0.0756164193153381,-0.2824293971061706
8960,0.0223890580236911,-0.0779841840267181,-0.346380352973938
8970,0.084743246436119,-0.229745477437973,-0.4158092141151428
8980,0.0719341114163398,-0.3516516983509063,-0.4705719947814941
8990,0.0233924090862274,-0.3652521967887878,-0.5307136178016663
9000,-0.0025859368033707,-0.2799718379974365,-0.5983322262763977
9010,0.0183896515518426,-0.1519787311553955,-0.6351829171180725
9020,0.059159018099308,-0.0212493520230054,-0.6501123905181885
9030,0.0771635845303535,0.0440116748213768,-0.6707843542098999
9040,0.0760517939925193,0.0937272384762764,-0.6991555690765381
9050,0.0770339667797088,0.1329790204763412,-0.7088177800178528
9060,0.0632243007421493,0.1195249706506729,-0.7302966117858887
9070,0.026326734572649,0.1061258018016815,-0.7781506776809692
9080,-0.024096094071865,0.1113922521471977,-0.8218878507614136
9090,-0.0937526673078537,0.1201335489749908,-0.8333075046539307
9100,-0.1597334295511245,0.1242743507027626,-0.8329152464866638
9110,-0.1956517547369003,0.1422909200191497,-0.8252460956573486
9120,-0.173296257853508,0.2127348482608795,-0.8246762156486511
9130,-0.1308896839618683,0.2971951365470886,-0.7799721360206604
9140,-0.0827921032905578,0.3554573953151703,-0.6888375878334045
9150,-0.0342072546482086,0.3844877183437347,-0.646896481513977
9160,0.020724955946207,0.4118604063987732,-0.6529657244682312
9170,0.0748856663703918,0.3755812346935272,-0.6351486444473267
9180,0.101373016834259,0.3035147488117218,-0.6361250877380371
9190,0.1171245500445365,0.2356038987636566,-0.6470818519592285
9200,0.1281511932611465,0.1600647121667862,-0.6699910759925842
9210,0.1270225495100021,0.1118473783135414,-0.7103017568588257
9220,0.0965347588062286,0.0386464186012744,-0.7279647588729858
9230,0.0393580235540866,-0.055754117667675,-0.7085055708885193
9240,-0.024944107979536,-0.1211912035942077,-0.7324866652488708
9250,-0.0823152512311935,-0.1137759014964103,-0.7719851136207581
9260,-0.1229416504502296,-0.0972747355699539,-0.7760412096977234
9270,-0.1397842615842819,-0.0306152831763029,-0.7507939338684082
9280,-0.1370814889669418,0.0036039249971508,-0.7062233686447144
9290,-0.1068447679281234,0.0089986901730299,-0.6825316548347473
9300,-0.0488707534968853,0.0249887201935052,-0.6756970882415771
9310,-0.0138102388009428,0.0357223227620124,-0.6813454031944275
9320,-0.0293589401990175,-0.0097017418593168,-0.6422277688980103
9330,-0.0997976809740066,-0.0922586694359779,-0.5985769629478455
9340,-0.1669878214597702,-0.1640298515558242,-0.6134315133094788
9350,-0.1964804530143737,-0.1412116289138794,-0.6573566198348999
9360,-0.2138115763664245,-0.078159250319004,-0.6735115051269531
9370,-0.2263055294752121,-0.0285629350692033,-0.7233656048774719
9380,-0.191628098487854,0.0990644842386245,-0.8031021952629089
9390,-0.1084288135170936,0.2169828563928604,-0.8572706580162048
9400,-0.0068404083140194,0.2274924963712692,-0.8524260520935059
9410,0.082481749355793,0.208976075053215,-0.8317306637763977
9420,0.1338333338499069,0.1109600961208343,-0.8412663340568542
9430,0.1163994669914245,-0.0068810516968369,-0.8751981854438782
9440,0.050809234380722,-0.1251786798238754,-0.9201518893241882
9450,-0.04816634953022,-0.1659956127405166,-0.9716576337814332
9460,-0.1368606388568878,-0.1282449811697006,-1.0157619714736938
9470,-0.2149679511785507,-0.033076923340559,-1.0241717100143433
9480,-0.2803122103214264,0.0534502007067203,-0.995126724243164
9490,-0.3114144504070282,0.1411142647266388,-0.968395471572876
9500,-0.2809226810932159,0.2037177830934524,-0.946051061153412
9510,-0.1991061121225357,0.2215369939804077,-0.933579444885254
9520,-0.0992945358157157,0.1820571571588516,-0.9583138823509216
9530,-0.0279508475214242,0.1078971847891807,-1.0235501527786257
9540,0.0141924601048231,0.0075934249907732,-1.0793380737304688
9550,0.0406925082206726,-0.1442893147468567,-1.1223148107528689
9560,0.0707757771015167,-0.3179470598697662,-1.198362946510315
9570,0.0889696925878524,-0.4473660588264465,-1.267925262451172
9580,0.1133271679282188,-0.5157990455627441,-1.2977133989334106
9590,0.1283852159976959,-0.5373445153236389,-1.3150743246078491
9600,0.1363992244005203,-0.4919867813587188,-1.312752366065979
9610,0.1314888894557953,-0.4018145203590393,-1.280084490776062
9620,0.1111900061368942,-0.29379603266716,-1.2534507513046265
9630,0.0613281726837158,-0.1579636186361313,-1.2538933753967283
9640,-0.0022593322210013,-0.0235846787691116,-1.2329435348510742
9650,-0.0504891797900199,0.0669918283820152,-1.1662367582321167
9660,-0.1026936471462249,0.0962403938174247,-1.0695085525512695
9670,-0.1479175984859466,0.0544580593705177,-1.0307981967926023
9680,-0.1561713069677353,0.0245042257010936,-1.0499556064605713
9690,-0.1178777068853378,-0.0056853676214814,-1.058542251586914
9700,-0.0766118392348289,-0.0730590149760246,-1.0415594577789309
9710,-0.0698553994297981,-0.1035197153687477,-1.0820931196212769
9720,-0.0720609351992607,-0.0542150810360908,-1.1298667192459106
9730,-0.0726660043001174,-0.002076246542856,-1.121321678161621
9740,-0.0865211635828018,0.0619809180498123,-1.10230553150177
9750,-0.0877051949501037,0.1486055552959442,-1.0711740255355835
9760,-0.0597031936049461,0.1904172450304031,-1.02362859249115
9770,-0.0189365949481725,0.2169899940490722,-0.9898799061775208
9780,-0.003214874304831,0.2627474963665008,-0.98151296377182
9790,-0.0142478179186582,0.2637656033039093,-0.977786898612976
9800,-0.0540391728281974,0.2431628555059433,-0.9700549840927124
9810,-0.1016770005226135,0.177725002169609,-0.948424220085144
9820,-0.1519151926040649,0.0854002758860588,-0.9468454122543336
9830,-0.1941414773464203,0.0096091106534004,-1.0010391473770142
9840,-0.2107977569103241,0.0375477038323879,-1.0615724325180054
9850,-0.2213188409805297,0.0881006270647049,-1.0887974500656128
9860,-0.2153230011463165,0.1910162568092346,-1.1057429313659668
9870,-0.1299790740013122,0.2541715204715729,-1.0994727611541748
9880,0.0247563924640417,0.2797880172729492,-1.0710272789001465
9890,0.1866006851196289,0.1995357722043991,-1.029987931251526
9900,0.3025535941123962,0.0486768260598182,-1.0029288530349731
9910,0.3287684321403503,-0.1040144488215446,-1.0189651250839231
9920,0.2432136088609695,-0.2074389159679412,-1.0504125356674194
9930,0.0785682052373886,-0.2372410297393798,-1.0608062744140625
9940,-0.0942398309707641,-0.2254530936479568,-1.036743402481079
9950,-0.2173721492290496,-0.1587102711200714,-1.0490858554840088
9960,-0.2593494653701782,-0.0651009678840637,-1.0696632862091064
9970,-0.2251592874526977,-0.0566278547048568,-1.0635430812835691
9980,-0.1550118923187255,-0.0610105358064174,-1.0675700902938845
9990,-0.0842620879411697,-0.0842964202165603,-1.0555834770202637
10000,-0.0164899714291095,-0.1595847010612487,-1.0163509845733645
10010,0.0285930857062339,-0.2155108153820037,-0.9687208533287048
10020,0.0270930640399456,-0.2795414924621582,-0.9408212304115297
10030,-0.022852923721075,-0.4167784452438354,-0.9570329785346984
10040,-0.1016915589570999,-0.455375462770462,-0.9894184470176696
10050,-0.1687619388103485,-0.373935729265213,-0.9794123768806458
10060,-0.2281772047281265,-0.222344234585762,-0.944405436515808
10070,-0.2795666456222534,-0.0158286057412624,-0.9039402604103088
10080,-0.3049332797527313,0.1656243503093719,-0.8344224691390991
10090,-0.2618553042411804,0.2801432013511657,-0.764807939529419
10100,-0.143391415476799,0.311754435300827,-0.7133078575134277
10110,0.0148879624903202,0.2333437949419021,-0.6569556593894958
10120,0.1504070907831192,0.0360496826469898,-0.5828332901000977
10130,0.1950408667325973,-0.2239110469818115,-0.5663062334060669
10140,0.1539753377437591,-0.4156696796417236,-0.6294470429420471
10150,0.0424932986497879,-0.4999259710311889,-0.6864754557609558
10160,-0.0887563824653625,-0.5333166122436523,-0.7262726426124573
10170,-0.2137550413608551,-0.4059288501739502,-0.7963151335716248
10180,-0.3170995712280273,-0.1943313032388687,-0.8525711297988892
10190,-0.3819619119167328,-0.0294845663011074,-0.832551121711731
10200,-0.3578202426433563,0.0954857319593429,-0.7662490606307983
10210,-0.2241852283477783,0.1519085168838501,-0.6902685165405273
10220,-0.0304595734924078,0.10410837829113,-0.6237459778785706
10230,0.1188731864094734,0.0366166867315769,-0.5655103325843811
10240,0.1574114263057708,-0.0209900122135877,-0.5148231983184814
10250,0.1282199770212173,-0.1056851893663406,-0.5531631708145142
10260,0.0820665284991264,-0.1617742329835891,-0.6692743301391602
10270,0.0443798713386058,-0.2011812925338745,-0.8094942569732666
10280,0.0078768953680992,-0.21810083091259,-0.8895619511604309
10290,-0.0366471596062183,-0.2377951741218567,-0.8506156206130981
10300,-0.0683280676603317,-0.2567737996578216,-0.7636280655860901
10310,-0.087769940495491,-0.2412752658128738,-0.7041186690330505
10320,-0.0860872715711593,-0.2068800032138824,-0.6691720485687256
10330,-0.0974507182836532,-0.122735284268856,-0.6663277745246887
10340,-0.1381245702505111,-0.053950160741806,-0.6632782220840454
10350,-0.1658126562833786,-0.0994223058223724,-0.6530380845069885
10360,-0.1657992601394653,-0.2018141746520996,-0.6746846437454224
10370,-0.136344701051712,-0.3323865532875061,-0.7094902992248535
10380,-0.0954905897378921,-0.4484084248542785,-0.8013566732406616
10390,-0.0916447192430496,-0.4222215712070465,-0.8706824779510498
10400,-0.1585414111614227,-0.3611645102500915,-0.8086761832237244
10410,-0.2796750366687774,-0.2884804606437683,-0.6832173466682434
10420,-0.3711485564708709,-0.1763072460889816,-0.5640480518341064
10430,-0.3803747892379761,-0.0858721509575843,-0.4913435280323028
10440,-0.3238937854766845,0.0436910353600978,-0.4675569236278534
10450,-0.2354203909635543,0.175187811255455,-0.4151903986930847
10460,-0.1894758939743042,0.2289597541093826,-0.3642183542251587
10470,-0.1663109213113784,0.2385428696870803,-0.3609810173511505
10480,-0.153122216463089,0.2435128390789032,-0.4372425377368927
10490,-0.1609343290328979,0.2533404231071472,-0.5223872661590576
10500,-0.1763632744550705,0.1867135018110275,-0.5410711169242859
10510,-0.1800192594528198,0.1115854606032371,-0.5295438766479492
10520,-0.1478107124567031,0.0717003643512725,-0.5107946395874023
10530,-0.0780955329537391,0.0261957366019487,-0.4551625847816467
10540,0.0014120722189545,-0.0238892696797847,-0.3674050271511078
10550,0.067947156727314,-0.0478396080434322,-0.3688556551933288
10560,0.1268946826457977,0.0115980803966522,-0.4455634653568268
10570,0.1492394059896469,0.082172118127346,-0.5291603803634644
10580,0.0768884718418121,0.1151487827301025,-0.5684840679168701
10590,-0.0357531160116195,0.1436523348093032,-0.5591006875038147
10600,-0.1134857609868049,0.1317115873098373,-0.5250470042228699
10610,-0.1150106862187385,0.1145973205566406,-0.4873198866844177
10620,-0.0677630677819252,0.0889805480837822,-0.455005794763565
10630,-0.0060246023349463,0.0691149607300758,-0.4225799441337585
10640,0.035532146692276,0.0551526956260204,-0.4166483879089355
10650,0.0498959049582481,0.0590683408081531,-0.472393125295639
10660,0.0842492431402206,0.0931613072752952,-0.5269372463226318
10670,0.1525923460721969,0.0965134277939796,-0.5084594488143921
10680,0.215103879570961,0.0667675882577896,-0.4846855998039245
10690,0.2272761315107345,0.0101666264235973,-0.4850696325302124
10700,0.1706986725330352,-0.0935552269220352,-0.4849576950073242
10710,0.0634206756949424,-0.1590985506772995,-0.4579921364784241
10720,-0.050617016851902,-0.1577173620462417,-0.40359628200531
10730,-0.130905732512474,-0.0987406000494957,-0.3231326043605804
10740,-0.1507913470268249,-0.0346033573150634,-0.2555505931377411
10750,-0.1017843857407569,0.024423211812973,-0.2304351329803466
10760,0.0028810431249439,0.0213488563895225,-0.2424563765525818
10770,0.1072362065315246,-0.018560741096735,-0.2562166750431061
10780,0.1647765636444091,-0.1249786615371704,-0.2389498353004455
10790,0.1393819898366928,-0.1878713369369506,-0.2321973890066146
10800,0.061892170459032,-0.181738018989563,-0.2132841795682907
10810,0.0022099339403212,-0.172822818160057,-0.1802852153778076
10820,-0.007996529340744,-0.1579132676124572,-0.1601653546094894
10830,0.0269073918461799,-0.1399486362934112,-0.1400454342365265
10840,0.053936842828989,-0.1504216343164444,-0.1071454063057899
10850,0.0460477583110332,-0.1613304764032364,-0.1255792826414108
10860,0.0270301327109336,-0.1281012296676635,-0.1995148360729217
10870,0.0109044276177883,-0.1315747946500778,-0.2650552093982696
10880,-0.0075559825636446,-0.1559583693742752,-0.3100218176841736
10890,-0.02142652310431,-0.166490375995636,-0.312314510345459
10900,0.0101024564355611,-0.1976379007101059,-0.258802980184555
10910,0.0700906962156295,-0.2343538403511047,-0.1857961267232895
10920,0.1546101123094558,-0.2391130924224853,-0.1181501299142837
10930,0.2598475813865661,-0.2197820097208023,-0.0522438213229179
10940,0.3524462878704071,-0.2324635833501815,0.0078106233850121
10950,0.4056051075458526,-0.2319578528404235,0.0124138975515961
10960,0.3878374099731445,-0.2287770360708236,-0.0316421762108802
10970,0.2918600142002105,-0.1984359174966812,-0.1079835444688797
10980,0.1241833642125129,-0.1646167039871215,-0.1543644219636917
10990,-0.0876620411872863,-0.1333828866481781,-0.1832040548324585
11000,-0.283415287733078,-0.0692996010184288,-0.1776173561811447
11010,-0.4002479016780853,0.0019146562553942,-0.1617963165044784
11020,-0.4087724983692169,0.0773574635386467,-0.1528905481100082
11030,-0.3161141872406006,0.1411148756742477,-0.1539456993341446
11040,-0.1621007621288299,0.1948048621416092,-0.1944312900304794
11050,-0.0007510259747505,0.1804176717996597,-0.2158492356538772
11060,0.1363672018051147,0.1026340425014495,-0.1852656006813049
11070,0.2252443432807922,-0.0217648707330226,-0.1301853060722351
11080,0.2562501430511474,-0.1747785061597824,-0.0714198872447013
11090,0.2183578908443451,-0.2774281799793243,-0.1003162488341331
11100,0.1400144547224044,-0.256152868270874,-0.1910928040742874
11110,0.0577089227735996,-0.1028501242399215,-0.2755906581878662
11120,-0.0140714589506387,0.0612783730030059,-0.2745663225650787
11130,-0.082467034459114,0.1776702255010604,-0.2096078097820282
11140,-0.1145906448364257,0.2348942756652832,-0.1626020967960357
11150,-0.0704085379838943,0.272981196641922,-0.1406328827142715
11160,0.0376520045101642,0.2289628386497497,-0.1026651859283447
11170,0.1367404907941818,0.1146391928195953,-0.0535767376422882
11180,0.1700982600450515,0.0130106024444103,0.0011347867548465
11190,0.1384841501712799,-0.0800820589065551,0.0288985073566436
11200,0.0916856378316879,-0.1237811967730522,0.035805195569992
11210,0.076345294713974,-0.0997064858675003,-0.0272344909608364
11220,0.0667283236980438,-0.0193031001836061,-0.1072913706302642
11230,0.0341128557920455,0.0432191342115402,-0.1232498288154602
11240,-0.0471392907202243,0.0758017003536224,-0.0899630263447761
11250,-0.1534185856580734,0.0857984125614166,-0.0430410616099834
11260,-0.2206809073686599,0.0790215879678726,-0.01935844309628
11270,-0.2326704561710357,0.0593011453747749,0.0111395446583628
11280,-0.2001496702432632,0.007248013280332,0.0507051609456539
11290,-0.1406165659427642,-0.0847338438034057,0.0635083094239234
11300,-0.0389218032360076,-0.1687927693128585,0.0488376095890998
11310,0.0870329365134239,-0.2110835015773773,0.0308138690888881
11320,0.220524176955223,-0.2097478210926056,-0.0134179126471281
11330,0.3309321701526642,-0.1615392714738845,-0.1001189798116684
11340,0.411043643951416,-0.0827720835804939,-0.1339445263147354
11350,0.4293880462646484,-0.0343915000557899,-0.0932045504450798
11360,0.4032509624958038,-0.0056655798107385,-0.0394401215016841
11370,0.3598150908946991,0.0113525511696934,0.009746597148478
11380,0.3224881887435913,0.0221165064722299,0.0554290674626827
11390,0.2881192862987518,-0.0093530025333166,0.0913639068603515
11400,0.2422096729278564,0.0109097845852375,0.1282443702220916
11410,0.1712942272424698,-0.0429704934358596,0.1598843187093734
11420,0.0830394178628921,-0.0846294462680816,0.0586096607148647
11430,-0.0026049171574413,-0.0356099754571914,-0.102624237537384
11440,-0.1080442145466804,0.017770167440176,-0.1594704091548919
11450,-0.2294340282678604,0.0201851222664117,-0.1051690876483917
11460,-0.2968092560768127,0.0204704664647579,-0.0251579564064741
11470,-0.2523539066314697,-0.0262576229870319,0.0370271205902099
11480,-0.1313437074422836,-0.084146611392498,0.0511951819062233
11490,-0.0025236695073544,-0.1127771958708763,0.0483642444014549
11500,0.0521246753633022,-0.0993212237954139,0.02464384958148
11510,0.0496825575828552,-0.0363007113337516,0.0005899118259549
11520,0.0400255620479583,0.061563778668642,-0.011233078315854
11530,0.0469505786895751,0.1204361543059349,0.0018395809456706
11540,0.0506160110235214,0.1239750832319259,0.0120551856234669
11550,0.0290840864181518,0.1231633573770523,-0.0252580977976322
11560,0.0072054276242852,0.1128517612814903,-0.0546062029898166
11570,-0.0004751286469399,0.0901866629719734,-0.0640782639384269
11580,0.0187002196907997,0.0651613175868988,-0.0623590387403965
11590,0.0588710755109787,0.0119076846167445,-0.0449113398790359
11600,0.1056738644838333,-0.05724523589015,-0.0217531193047761
11610,0.1124441549181938,-0.118309386074543,-0.0393451638519763
11620,0.0742313340306282,-0.1122607216238975,-0.0708240568637847
11630,0.0075684166513383,-0.0737101286649704,-0.0595524907112121
11640,-0.0488252975046634,-0.0612948089838027,-0.0334910862147808
11650,-0.0699276551604271,-0.0357502996921539,-0.071592666208744
11660,-0.0538150072097778,-0.0426222197711467,-0.1296534985303878
11670,-0.0231159515678882,-0.1180165708065033,-0.1827420145273208
11680,-0.0080481814220547,-0.2022673338651657,-0.2210501730442047
11690,-0.0255414210259914,-0.2723313570022583,-0.2413759380578994
11700,-0.0952950343489646,-0.2877075374126434,-0.2525689005851745
11710,-0.2130152732133865,-0.19169282913208,-0.2360442578792572
11720,-0.3326687216758728,-0.0452875867486,-0.1929228007793426
11730,-0.3906491994857788,0.0923405811190605,-0.1270652264356613
11740,-0.3508842587471008,0.1806008219718933,-0.0777665451169014
11750,-0.2270627170801162,0.2114197313785553,-0.0692582800984382
11760,-0.0573722124099731,0.2101378589868545,-0.0733516439795494
11770,0.0810634270310401,0.1662673503160476,-0.0508532598614692
11780,0.1358255892992019,0.0419970788061618,-0.0085024554282426
11790,0.1010524183511734,-0.0992889404296875,0.0145330894738435
11800,0.0037294044159352,-0.198664054274559,-0.0031835820991545
11810,-0.1036156937479972,-0.2202705442905426,-0.0603651106357574
11820,-0.2038465291261673,-0.1550450772047042,-0.1309697329998016
11830,-0.2601052820682525,-0.0256311576813459,-0.1726356893777847
11840,-0.2576181888580322,0.0959482640027999,-0.1894128620624542
11850,-0.2034678757190704,0.2022576481103897,-0.1991709470748901
11860,-0.1077608615159988,0.2312042564153671,-0.1588636636734008
11870,-0.0238952524960041,0.1561960577964782,-0.1041503623127937
11880,0.0376534201204776,0.0361324399709701,-0.0749032273888588
11890,0.0914106592535972,-0.0679433643817901,-0.0815305039286613
11900,0.1091258004307746,-0.1500110626220703,-0.1268286556005478
11910,0.0769268572330474,-0.1835370659828186,-0.1510301232337951
11920,0.0027372762560844,-0.1684447675943374,-0.138636440038681
11930,-0.0821829363703727,-0.1067909896373748,-0.1568532586097717
11940,-0.1425361484289169,0.0447037778794765,-0.2024905830621719
11950,-0.1993171423673629,0.1928740739822387,-0.2077186405658722
11960,-0.2549616396427154,0.2592872381210327,-0.1655635684728622
11970,-0.2781633734703064,0.2784409523010254,-0.114061489701271
11980,-0.2334044873714447,0.2161574512720108,-0.0939777344465255
11990,-0.1304509490728378,0.0823458731174469,-0.1044711172580719
12000,-0.0163040310144424,-0.0695986896753311,-0.1481303870677948
12010,0.0569664537906646,-0.1649965792894363,-0.1972673088312149
12020,0.1052334457635879,-0.2013443410396576,-0.2363915592432022
12030,0.1377293318510055,-0.1326177418231964,-0.2592017948627472
12040,0.1342552751302719,-0.0395733602344989,-0.2364121228456497
12050,0.0949810966849327,0.075148694217205,-0.2276878803968429
12060,0.0157110020518302,0.1854712069034576,-0.2194292098283767
12070,-0.0481417477130889,0.2503716349601745,-0.1815718412399292
12080,-0.0812956020236015,0.2755414545536041,-0.1424165666103363
12090,-0.0728421956300735,0.2412620484828949,-0.1090205162763595
12100,-0.0451597906649112,0.1359815001487732,-0.0797313749790191
12110,-0.0114553570747375,0.0105356909334659,-0.063444547355175
12120,0.0265884604305028,-0.1113833636045456,-0.0656294524669647
12130,0.0651065558195114,-0.2315657138824463,-0.1296907365322113
12140,0.0635891258716583,-0.2411031872034073,-0.2773428857326507
12150,0.0445690974593162,-0.1718317121267318,-0.3814722299575805
12160,0.0122392047196626,-0.1082114055752754,-0.4057670533657074
12170,-0.0101044503971934,-0.060286495834589,-0.3682979941368103
12180,-0.0023515857756137,-0.0609230436384677,-0.3369125425815582
12190,0.0226760040968656,-0.0612530075013637,-0.351015031337738
12200,0.0232838243246078,-0.0600271113216877,-0.3689481317996979
12210,-0.0174156688153743,-0.0573666132986545,-0.3594667315483093
12220,-0.1133681610226631,-0.0624471753835678,-0.311435729265213
12230,-0.2385425865650177,-0.1096343994140625,-0.2825646698474884
12240,-0.349973052740097,-0.1473377645015716,-0.3638643324375152
12250,-0.4223116934299469,-0.1558196693658828,-0.4386677145957947
12260,-0.4580839574337005,-0.158739686012268,-0.4349651336669922
12270,-0.4687911868095398,-0.1455690264701843,-0.3814576864242553
12280,-0.4521612524986267,-0.097615048289299,-0.3338666558265686
12290,-0.3674202859401703,-0.0283595435321331,-0.3155358433723449
12300,-0.2158030718564987,0.0401073731482028,-0.2788796126842499
12310,-0.0433048084378242,0.0375422164797782,-0.2215177714824676
12320,0.079181857407093,-0.0507237538695335,-0.1848086416721344
12330,0.1478147059679031,-0.1830327957868576,-0.2017799019813537
12340,0.1386078000068664,-0.2785188853740692,-0.278382658958435
12350,0.0471213050186634,-0.2768307030200958,-0.3757163882255554
12360,-0.1183350831270217,-0.2036007046699524,-0.413459837436676
12370,-0.281672865152359,-0.1136415228247642,-0.4080136716365814
12380,-0.3717096447944641,-0.0163301713764667,-0.3808788657188415
12390,-0.3826696276664734,0.097602255642414,-0.3844107687473297
12400,-0.3286357522010803,0.1421736031770706,-0.3989512324333191
12410,-0.2313331663608551,0.1500078290700912,-0.4008777737617492
12420,-0.1030800119042396,0.1693668067455291,-0.4174122214317322
12430,0.0132226310670375,0.1488929539918899,-0.4130289256572723
12440,0.1140744686126709,0.0515742525458335,-0.3827792108058929
12450,0.2073974907398224,-0.1160986274480819,-0.3669856190681457
12460,0.2537966668605804,-0.2768693268299103,-0.3809660971164703
12470,0.2393564581871032,-0.4144010841846466,-0.4464550912380218
12480,0.1833795309066772,-0.4031135439872741,-0.5221843719482422
12490,0.0934983864426612,-0.2806930840015411,-0.5406163930892944
12500,-0.0028451676480472,-0.1122864633798599,-0.5289485454559326
12510,-0.0691237896680831,0.0936336740851402,-0.5216629505157471
12520,-0.0816505700349807,0.2677327394485473,-0.5251621603965759
12530,-0.0444051958620548,0.3457534909248352,-0.5341521501541138
12540,0.0255998112261295,0.3365717530250549,-0.5574283003807068
12550,0.0510846637189388,0.2642464339733124,-0.6160367727279663
12560,0.018914870917797,0.1768438965082168,-0.667668342590332
12570,-0.0525286868214607,0.0957655683159828,-0.7251383066177368
12580,-0.098777912557125,0.063510350883007,-0.772024393081665
12590,-0.10245893150568,0.0342965386807918,-0.7712494134902954
12600,-0.0945823565125465,0.0013472978025674,-0.7402614951133728
12610,-0.1019582450389862,0.0066070412285625,-0.7713072896003723
12620,-0.1286870241165161,0.0454726889729499,-0.8649490475654602
12630,-0.1596185714006424,0.1279848664999008,-0.939306139945984
12640,-0.2002210617065429,0.2366700917482376,-1.0202975273132324
12650,-0.2515305876731872,0.3392963409423828,-1.0792382955551147
12660,-0.2843287885189056,0.4019123017787933,-1.0642110109329224
12670,-0.2996853590011596,0.3842352926731109,-1.0560593605041504
12680,-0.2891228795051574,0.313271164894104,-1.090606927871704
12690,-0.2498836070299148,0.218470886349678,-1.164044976234436
12700,-0.1932907402515411,0.0940088108181953,-1.2136070728302002
12710,-0.1491943746805191,-0.0427402481436729,-1.2521991729736328
12720,-0.0809297487139701,-0.1097244843840599,-1.3049962520599363
12730,-0.0016900496557354,-0.1591623425483703,-1.348827838897705
12740,0.0871970281004905,-0.1507631540298462,-1.4043254852294922
12750,0.1571305692195892,-0.0938348770141601,-1.397165060043335
12760,0.1920608431100845,-0.0659610107541084,-1.3351662158966064
12770,0.1842767000198364,-0.014983844012022,-1.2788547277450562
12780,0.1474685072898864,0.0489272847771644,-1.2657581567764282
12790,0.0677723512053489,0.0941528230905532,-1.262109398841858
12800,-0.0282379277050495,0.0688942894339561,-1.264155626296997
12810,-0.1209396347403526,0.0297532752156257,-1.270803689956665
12820,-0.1709805876016616,-0.0330903530120849,-1.2915616035461426
12830,-0.1566434651613235,-0.0889203324913978,-1.304284930229187
12840,-0.0937754660844802,-0.1144609898328781,-1.2614513635635376
12850,-0.0122734224423766,-0.1575882285833358,-1.204190015792847
12860,0.0391849167644977,-0.1198846325278282,-1.2176449298858645
12870,0.0044477088376879,-0.0071455687284469,-1.2293295860290527
12880,-0.1022487431764602,0.1355472803115844,-1.181788682937622
12890,-0.2158035337924957,0.2833186089992523,-1.1006160974502563
12900,-0.2701631486415863,0.4233594834804535,-1.016778588294983
12910,-0.2431991845369339,0.5307769775390625,-0.9403130412101746
12920,-0.1535540223121643,0.5447474718093872,-0.8847129344940186
12930,-0.0415135063230991,0.4845112860202789,-0.8873361349105835
12940,0.073736771941185,0.4460312128067016,-0.9540082812309264
12950,0.1649625450372696,0.4582862854003906,-1.0608619451522827
12960,0.2184522002935409,0.500123143196106,-1.105818271636963
12970,0.2155709266662597,0.5057895183563232,-1.0829707384109497
12980,0.1982473731040954,0.5293082594871521,-1.0968961715698242
12990,0.1569161713123321,0.4721618294715881,-1.0947158336639404
13000,0.0823001265525817,0.3565913438796997,-1.0784826278686523
13010,0.0027126166969537,0.3336096107959747,-1.0748945474624634
13020,-0.0453774556517601,0.3389694988727569,-1.0463707447052002
13030,-0.0747164413332939,0.3415207862854004,-1.012166976928711
13040,-0.0806466937065124,0.3552724719047546,-1.0009783506393433
13050,-0.079885296523571,0.3601782917976379,-1.0301097631454468
13060,-0.0968780368566513,0.3648214340209961,-1.0874745845794678
13070,-0.1416889131069183,0.3566910922527313,-1.0971522331237793
13080,-0.2046284228563308,0.2978878021240234,-1.0611852407455444
13090,-0.2785681784152984,0.2128503769636154,-1.047520637512207
13100,-0.3176146149635315,0.1403132677078247,-1.0548176765441897
13110,-0.3159259259700775,0.100963719189167,-1.0279711484909058
13120,-0.2942867577075958,0.1096147149801254,-0.961710810661316
13130,-0.2419268637895584,0.1376737803220749,-0.8745490312576294
13140,-0.1517501771450042,0.1466075032949447,-0.8478829264640808
13150,-0.0268375314772129,0.2072253078222274,-0.8711181879043579
13160,0.1016430929303169,0.2722919881343841,-0.8718594312667847
13170,0.1927514374256134,0.242411583662033,-0.8087478280067444
13180,0.2507173418998718,0.1415719985961914,-0.7486887574195862
13190,0.3114456832408905,0.0227574575692415,-0.766785204410553
13200,0.356679618358612,-0.0728839859366417,-0.8365474939346313
13210,0.3623686730861664,-0.1200227364897728,-0.8773407340049744
13220,0.3116835355758667,-0.1256632506847381,-0.8944739103317261
13230,0.2327120304107666,-0.1045955121517181,-0.9157333970069884
13240,0.1637568175792694,-0.0731104090809822,-0.9512378573417664
13250,0.1126294583082199,-0.0075420583598315,-0.9905932545661926
13260,0.0774520337581634,0.0008218651637434,-0.9871580600738524
13270,0.0579347871243953,-0.0078113041818141,-0.9656370282173156
13280,0.0878450199961662,-0.023861376568675,-0.938252568244934
13290,0.1375569105148315,-0.0972690135240554,-0.901122272014618
13300,0.1976493149995803,-0.1776976138353347,-0.8920533657073975
13310,0.2502382397651672,-0.2472817599773407,-0.9179036021232604
13320,0.2619832456111908,-0.2333758026361465,-0.9701964855194092
13330,0.1923983097076416,-0.2009148001670837,-1.0306036472320557
13340,0.050167016685009,-0.1714524924755096,-1.1059402227401731
13350,-0.0929363518953323,-0.0944301337003707,-1.1297897100448608
13360,-0.1721107065677642,-0.0405665934085845,-1.0918985605239868
13370,-0.1887261718511581,0.0010666004382073,-1.0291976928710938
13380,-0.1933583915233612,-0.0063472739420831,-1.010419845581055
13390,-0.1501909494400024,-0.0271106082946062,-1.057630181312561
13400,-0.0443050600588321,-0.0158912595361471,-1.090049386024475
13410,0.059225857257843,-0.0971461683511734,-1.0994269847869873
13420,0.1375315636396408,-0.2461576759815216,-1.098056435585022
13430,0.1857158690690994,-0.3675560355186462,-1.1412599086761477
13440,0.1780487895011901,-0.3782480359077453,-1.20017409324646
13450,0.0818239897489547,-0.3291047215461731,-1.175505518913269
13460,-0.0840202048420906,-0.269908607006073,-1.1228129863739014
13470,-0.2447177469730377,-0.1786189079284668,-1.0800210237503052
13480,-0.3201345205307007,-0.11717040091753,-1.0735266208648682
13490,-0.2731643617153168,-0.0514758080244064,-1.0556679964065552
13500,-0.1558869779109954,-0.0366117171943187,-0.986314296722412
13510,-0.0669927969574928,-0.1040072739124298,-0.9091766476631165
13520,0.0012898333370685,-0.1823316365480423,-0.8884117007255554
13530,0.0331058204174041,-0.2384673506021499,-0.9494183659553528
13540,0.0191385969519615,-0.2178328335285186,-0.9923055768013
13550,-0.0421228967607021,-0.2254872918128967,-0.9707030653953552
13560,-0.1111704781651496,-0.2608563899993896,-0.9307604432106018
13570,-0.1667999178171157,-0.2795267403125763,-0.9140885472297668
13580,-0.1851499825716018,-0.2520165145397186,-0.9169133901596068
13590,-0.1733226180076599,-0.1760426461696624,-0.9364721775054932
13600,-0.177325963973999,-0.1007855609059333,-0.9053964614868164
13610,-0.2180462330579757,-0.0683013871312141,-0.8334207534790039
13620,-0.2441143691539764,-0.0509543679654598,-0.728111982345581
13630,-0.2206942588090896,-0.0657098814845085,-0.5820953845977783
13640,-0.1633587181568145,-0.1899246573448181,-0.4181446433067322
13650,-0.0971450731158256,-0.3556848466396332,-0.3546420931816101
13660,-0.0132823409512639,-0.3563521206378937,-0.4963258504867553
13670,0.0474590361118316,-0.2288399636745453,-0.6303073167800903
13680,-0.0051180203445255,-0.1747379004955291,-0.6339123845100403
13690,-0.156483307480812,-0.1290172934532165,-0.6145229935646057
13700,-0.2998292148113251,-0.0389996618032455,-0.6124995350837708
13710,-0.363081693649292,0.041944719851017,-0.5718919634819031
13720,-0.3469375073909759,0.1171516850590705,-0.5231572389602661
13730,-0.2729719281196594,0.1314462125301361,-0.4634653925895691
13740,-0.1870603114366531,0.0980163291096687,-0.3774640560150146
13750,-0.0989807918667793,0.0155693851411342,-0.3014073669910431
13760,0.0020365766249597,-0.0443055145442485,-0.3498970568180084
13770,0.0997045487165451,0.029705861583352,-0.4503722488880157
13780,0.1075035333633422,0.0863463804125785,-0.4948754608631134
13790,0.0185467656701803,0.1213605552911758,-0.4784586727619171
13800,-0.0921643823385238,0.1085194945335388,-0.4432926177978515
13810,-0.1470867544412613,0.0386037975549697,-0.4363351166248321
13820,-0.1132899820804596,-0.0251764506101608,-0.4606609642505646
13830,-0.052786685526371,-0.0813470408320427,-0.4815385639667511
13840,-0.0132393091917037,-0.1384435445070266,-0.4639046788215637
13850,-0.0006438880227506,-0.1642671525478363,-0.4681593477725982
13860,0.0041564027778804,-0.1898810118436813,-0.468773603439331
13870,0.02961116284132,-0.2081564217805862,-0.4919873178005218
13880,0.0847503021359443,-0.1746084094047546,-0.5206627249717712
13890,0.1597004532814026,-0.116950437426567,-0.5098886489868164
13900,0.2210743278264999,-0.0851430520415306,-0.4455060362815857
13910,0.2434475570917129,-0.1437586992979049,-0.3580408990383148
13920,0.2087058573961258,-0.2917927503585815,-0.340724766254425
13930,0.1447388678789138,-0.3650970458984375,-0.4127361178398132
13940,0.0643362998962402,-0.315143346786499,-0.4544600248336792
13950,-0.0378989912569522,-0.2464234083890915,-0.4126792848110199
13960,-0.1164716631174087,-0.1947966367006302,-0.3190055787563324
13970,-0.1043207198381424,-0.1927763670682907,-0.2344259768724441
13980,-0.0082031982019543,-0.2747809588909149,-0.1883692145347595
13990,0.0727009773254394,-0.3970860838890075,-0.2322557121515274
14000,0.0755218639969825,-0.4684471487998962,-0.3210867643356323
14010,0.0163187272846698,-0.4777317345142364,-0.3612749278545379
14020,-0.054191593080759,-0.4796446561813354,-0.3552760779857635
14030,-0.0780966579914093,-0.4520258009433746,-0.331591248512268
14040,-0.0221831034868955,-0.3451550602912903,-0.3208108246326446
14050,0.079681746661663,-0.2071175426244735,-0.3321095705032348
14060,0.1686489582061767,-0.0795724317431449,-0.3384604454040527
14070,0.2094770818948745,-0.0094207776710391,-0.3065975606441498
14080,0.2181847989559173,-0.0446305163204669,-0.2418761998414993
14090,0.2238653302192688,-0.1368589699268341,-0.1724249571561813
14100,0.2362356632947921,-0.2382766008377075,-0.1120092421770095
14110,0.2440453916788101,-0.3232798874378204,-0.0750280544161796
14120,0.2345636636018753,-0.3558983504772186,-0.0210488121956586
14130,0.216969758272171,-0.3605652749538421,0.0091421138495206
14140,0.2082570791244506,-0.2708254754543304,-0.0463606603443622
14150,0.2032852321863174,-0.1214999109506607,-0.0968730971217155
14160,0.1628070622682571,-0.038780603557825,-0.1131788939237594
14170,0.1032760962843895,0.018181212246418,-0.1640141010284423
14180,0.0709156841039657,0.1076089814305305,-0.2072722911834716
14190,0.062002882361412,0.1114383414387703,-0.164845198392868
14200,0.0454308576881885,0.0396351777017116,-0.0785271450877189
14210,0.023897336795926,-0.0494121424853801,-0.0011133170919492
14220,0.017532467842102,-0.1900600492954254,0.0356386937201023
14230,0.0073695788159966,-0.2975026071071625,0.0553969517350196
14240,-0.0258343908935785,-0.3734340369701385,-0.0067450888454914
14250,-0.0911854356527328,-0.2729652225971222,-0.1637216657400131
14260,-0.1687522679567337,-0.0527948886156082,-0.2797172665596008
14270,-0.2629943490028381,0.1622979640960693,-0.289645791053772
14280,-0.3324271738529205,0.3369631767272949,-0.2026728242635727
14290,-0.3109967112541199,0.375363826751709,-0.1202277466654777
14300,-0.1997962445020675,0.3849457502365112,-0.0902521908283233
14310,-0.0418305732309818,0.3220773339271545,-0.0868348255753517
14320,0.0767649337649345,0.1689184606075287,-0.0583670325577259
14330,0.12308369576931,0.0135467145591974,-0.0597151257097721
14340,0.0794802010059356,-0.0574935786426067,-0.0977522954344749
14350,-0.0360834151506423,-0.1125760078430175,-0.1205966249108314
14360,-0.155606985092163,-0.1306161135435104,-0.1801128983497619
14370,-0.2310559302568435,-0.0247309636324644,-0.259977638721466
14380,-0.2380280196666717,0.1003132537007331,-0.2531726360321045
14390,-0.2098459154367447,0.1785968691110611,-0.1881078779697418
14400,-0.1751548200845718,0.2216473966836929,-0.1147423535585403
14410,-0.1268448084592819,0.2174851447343826,-0.08815947920084
14420,-0.100150279700756,0.1861201375722885,-0.1238491460680961
14430,-0.0975971072912216,0.1323155015707016,-0.1460045129060745
14440,-0.0804882422089576,0.0773836895823478,-0.1554328203201294
14450,-0.0333617441356182,0.1077921986579895,-0.1655760109424591
14460,0.0267131105065345,0.1066656932234764,-0.1416793763637542
14470,0.0696800202131271,0.0843798294663429,-0.100816361606121
14480,0.0732794106006622,0.0985272303223609,-0.0939976349472999
14490,0.0528710708022117,0.1109341010451316,-0.1127643957734108
14500,0.0342687591910362,0.1333522647619247,-0.1143848374485969
14510,0.0007685893215239,0.1505270004272461,-0.1041937172412872
14520,-0.0445316433906555,0.1360180377960205,-0.0836838111281395
14530,-0.0942054539918899,0.1087677776813507,-0.0837304145097732
14540,-0.1455424576997757,0.0975311696529388,-0.0836789906024932
14550,-0.1837481707334518,0.0962501913309097,-0.0732761546969413
14560,-0.2101126611232757,0.0927982032299041,-0.0267821568995714
14570,-0.1931552588939666,0.0456719696521759,0.0478830263018608
14580,-0.1173071041703224,0.0080199316143989,0.0928896516561508
14590,0.0316656045615673,-0.053029041737318,0.0810028985142707
14600,0.2176733911037445,-0.1163064166903495,0.0515006184577941
14610,0.3628321588039398,-0.1445202082395553,-0.0207890253514051
14620,0.4212277829647064,-0.1078303083777427,-0.0955543518066406
14630,0.409192681312561,-0.0456449687480926,-0.1100837588310241
14640,0.3495145440101623,-0.0243283696472644,-0.0683201178908348
14650,0.296490728855133,-0.0621812082827091,-0.0245220325887203
14660,0.2524078786373138,-0.114692747592926,0.0038369819521903
14670,0.2224342674016952,-0.1302615851163864,0.0076556880958378
14680,0.1930049061775207,-0.0864940732717514,-0.0147993555292487
14690,0.1473231613636016,0.0342429988086223,-0.012420886196196
14700,0.0989694073796272,0.122002474963665,0.0321313962340354
14710,0.0807328820228576,0.1208796873688697,0.0820928290486335
14720,0.0750900954008102,0.0579117089509964,0.0895795002579689
14730,0.0546295680105686,-0.0406651981174945,0.0441829897463321
14740,-0.0131292762234807,-0.1079870909452438,0.0132403904572129
14750,-0.1084821596741676,-0.1433347016572952,0.0323491021990776
14760,-0.2000221610069275,-0.1236620843410492,0.0974587276577949
14770,-0.2600114643573761,-0.0696212202310562,0.1930355876684188
14780,-0.2880682051181793,-0.0114233586937189,0.2527553737163543
14790,-0.2645745873451233,0.0781802982091903,0.2462713718414306
14800,-0.1762255579233169,0.1695594638586044,0.1988061070442199
14810,-0.0505254194140434,0.2239617258310318,0.1446251571178436
14820,0.0749770700931549,0.2108527421951294,0.1260380297899246
14830,0.1744248270988464,0.1098901778459549,0.130300685763359
14840,0.248880386352539,-0.0189924500882625,0.1439336091279983
14850,0.2793229818344116,-0.1308633238077163,0.1624827980995178
14860,0.2522032260894775,-0.2268498539924621,0.1834133118391037
14870,0.2062021791934967,-0.2598171234130859,0.1583660095930099
14880,0.1448061317205429,-0.2037644386291504,0.0674225389957428
14890,0.0752819180488586,-0.0954643338918685,-0.0130680417641997
14900,-0.0386034995317459,-0.0041120979003608,-0.0445478409528732
14910,-0.1769536435604095,0.0244476422667503,-0.0722052976489067
14920,-0.28917396068573,0.024613631889224,-0.0988035649061203
14930,-0.3175456821918487,-0.0200342629104852,-0.0893410891294479
14940,-0.2654721736907959,-0.0877430215477943,-0.0672468319535255
14950,-0.1669823676347732,-0.1661928296089172,-0.0261824820190668
14960,-0.068165123462677,-0.2846592366695404,0.0087572783231735
14970,0.0009753289632499,-0.3632185161113739,0.0114918127655982
14980,0.0611077919602394,-0.3842238783836365,0.0021693487651646
14990,0.0823094844818115,-0.3286711573600769,-0.028916398063302
15000,0.0272460877895355,-0.2098316997289657,-0.0581904128193855
15010,-0.0931847244501113,-0.0290688462555408,-0.0828949585556984
15020,-0.2402612268924713,0.1728658825159073,-0.0741642862558364
15030,-0.3785013854503631,0.3256082832813263,-0.0306064262986183
15040,-0.4596526026725769,0.3667590320110321,0.0120062362402677
15050,-0.4630548059940338,0.3310457766056061,0.0638851523399353
15060,-0.4078733921051025,0.21906578540802,0.104528933763504
15070,-0.3175131380558014,0.0779177173972129,0.1200631558895111
15080,-0.2148259580135345,-0.0614020228385925,0.1355159133672714
15090,-0.0963736101984977,-0.1840949207544326,0.1880816519260406
15100,0.0393247827887535,-0.2691285312175751,0.1563351899385452
15110,0.2213696837425232,-0.2282908111810684,0.0349118262529373
15120,0.3910304307937622,-0.1633182615041732,-0.063802495598793
15130,0.4233622848987579,-0.1112444102764129,-0.0873088836669921
15140,0.3306704461574554,-0.0544722825288772,-0.0416554324328899
15150,0.1813941448926925,-0.0061260554939508,0.0290456358343362
15160,0.0534043349325656,-0.007582327350974,0.0759807229042053
15170,0.0052264174446463,0.0244901217520236,0.0771913975477218
15180,0.0052006281912326,0.0630814656615257,0.0527950376272201
15190,0.0152026619762182,0.0987640917301178,0.0176383815705776
15200,0.0282790623605251,0.1193405836820602,-0.0425492264330387
15210,0.0584145933389663,0.1400152295827865,-0.1162679269909858
15220,0.1204203739762306,0.1235678866505622,-0.1452873349189758
15230,0.2033967524766922,0.0680907741189003,-0.1545918881893158
15240,0.292459100484848,0.0132375173270702,-0.1545979976654052
15250,0.3358902037143707,-0.0227119605988264,-0.1403255760669708
15260,0.3014008402824402,-0.0456359721720218,-0.1147870942950248
15270,0.2034486830234527,-0.0692930966615676,-0.0910841599106788
15280,0.0878720432519912,-0.057940300554037,-0.113890916109085
15290,-0.0069572567008435,-0.0421821102499961,-0.1608072817325592
15300,-0.0648331344127655,-0.0143955014646053,-0.2028722763061523
15310,-0.0731115713715553,0.0435889735817909,-0.2017960846424102
15320,-0.0503454767167568,0.0637065097689628,-0.1646401137113571
15330,-0.015992296859622,0.0454169809818267,-0.1147809401154518
15340,0.0207973737269639,-0.0023200053256005,-0.1016303971409797
15350,0.0677912458777427,-0.0373160727322101,-0.1365937143564224
15360,0.1200415715575218,-0.083251729607582,-0.1847404241561889
15370,0.1528426557779312,-0.1648999899625778,-0.2435840368270874
15380,0.1537371128797531,-0.2316363453865051,-0.2961727380752563
15390,0.1088673621416091,-0.2654720842838287,-0.3180665969848633
15400,0.0332934707403183,-0.2405679076910019,-0.3144104480743408
15410,-0.0461065433919429,-0.1733601093292236,-0.3024414181709289
15420,-0.086763210594654,-0.0645645856857299,-0.3213567435741424
15430,-0.0936650559306144,0.0141861559823155,-0.3238081932067871
15440,-0.0569432787597179,0.0495690964162349,-0.2899850904941559
15450,0.0230104103684425,0.0526218749582767,-0.2422298341989517
15460,0.098770722746849,0.0195443592965602,-0.1901079714298248
15470,0.122893638908863,-0.0606407597661018,-0.1448843032121658
15480,0.0865846201777458,-0.1428885757923126,-0.1196112930774688
15490,0.0144704803824424,-0.2007705271244049,-0.1025529503822326
15500,-0.0492583252489566,-0.1934225708246231,-0.1450174301862716
15510,-0.0599362663924694,-0.1125980243086814,-0.2768718600273132
15520,-0.0326360315084457,0.0255977269262075,-0.3992942273616791
15530,-0.0095126032829284,0.1523085236549377,-0.4342175722122192
15540,-0.0235249903053045,0.2306593954563141,-0.3716426789760589
15550,-0.0341826975345611,0.2410145699977874,-0.3011498749256134
15560,0.0050328560173511,0.2071091383695602,-0.3076111674308777
15570,0.0419655740261077,0.1522378921508789,-0.3447745144367218
15580,0.0413248315453529,0.0681601390242576,-0.3645441234111786
15590,-0.0325904041528701,0.0096203982830047,-0.3860360980033874
15600,-0.1470131576061248,-0.0150392539799213,-0.4235282242298126
15610,-0.2479139268398285,-0.0189258717000484,-0.4565010666847229
15620,-0.2912345230579376,0.0136242704465985,-0.4912844598293304
15630,-0.2848101556301117,0.0612610317766666,-0.4887552559375763
15640,-0.2587116360664367,0.0980008766055107,-0.4738081991672516
15650,-0.2441712915897369,0.1216247081756591,-0.4507084786891937
15660,-0.2546212673187256,0.1184330955147743,-0.423461765050888
15670,-0.2985130846500397,0.1180173754692077,-0.3803339898586273
15680,-0.3645960986614227,0.1387871354818344,-0.3193423449993133
15690,-0.4090232253074646,0.15057934820652,-0.2668956518173218
15700,-0.3668893277645111,0.159727856516838,-0.2316998094320297
15710,-0.2603652775287628,0.1604200005531311,-0.2491309940814972
15720,-0.122335210442543,0.1291727870702743,-0.3194878101348877
15730,0.0308197122067213,0.1269948482513427,-0.3665695786476135
15740,0.1489337533712387,0.0759878382086753,-0.3360256254673004
15750,0.205322191119194,-0.0039136460982263,-0.2781135737895965
15760,0.2106117755174636,-0.0598194375634193,-0.2499686479568481
15770,0.1786024421453476,-0.086527481675148,-0.2191132605075836
15780,0.1053788885474205,-0.108575165271759,-0.1864688545465469
15790,-0.0055870446376502,-0.1010413467884063,-0.2231421768665313
15800,-0.1202930957078933,-0.0170408748090267,-0.2557455599308014
15810,-0.2355531007051468,0.066119261085987,-0.239695206284523
15820,-0.3398765325546264,0.174864113330841,-0.2257719039916992
15830,-0.3690261840820312,0.2482461780309677,-0.2039225399494171
15840,-0.2949328422546386,0.2689210176467895,-0.1767219752073288
15850,-0.1656209081411361,0.2122476249933242,-0.1568880826234817
15860,-0.0414765514433383,0.0842528268694877,-0.1616895198822021
15870,0.0143222650513052,-0.0352496020495891,-0.1920133382081985
15880,-0.0091890003532171,-0.1156047508120536,-0.2271387577056884
15890,-0.0716963186860084,-0.1519156247377395,-0.2873826622962951
15900,-0.1279931664466858,-0.0957835540175437,-0.3629494905471802
15910,-0.1678481698036193,-0.0065482216887176,-0.4280816316604614
15920,-0.1903798133134842,0.0965307652950286,-0.5182586312294006
15930,-0.1832912713289261,0.1865328252315521,-0.6190299987792969
15940,-0.151212990283966,0.2640256881713867,-0.7261450886726379
15950,-0.1173362359404563,0.3080876767635345,-0.8258501291275024
15960,-0.1208304539322853,0.3539594113826751,-0.936327874660492
15970,-0.1519161909818649,0.3979902565479278,-1.0487388372421265
15980,-0.1545748710632324,0.3942211866378784,-1.0898144245147705
15990,-0.1237895265221595,0.3514630496501922,-1.105687379837036
16000,-0.0723840072751045,0.2991575300693512,-1.1201024055480957
16010,-0.0201756693422794,0.1497643291950225,-1.209137201309204
16020,0.0395846031606197,0.0467559173703193,-1.3425277471542358
16030,0.0583569593727588,-0.0409089513123035,-1.427322268486023
16040,0.0808815360069274,-0.0372908450663089,-1.4244775772094729
16050,0.110375240445137,-0.0115924030542373,-1.3193700313568115
16060,0.1614622324705124,0.0239705890417099,-1.2152806520462036
16070,0.2082174867391586,0.0865626037120819,-1.1210471391677856
16080,0.1844821721315384,0.109475053846836,-1.1123734712600708
16090,0.0870248526334762,0.1073778122663497,-1.1830586194992063
16100,-0.0413885153830051,0.0645718351006507,-1.244255304336548
16110,-0.1601729542016983,0.0127046443521976,-1.29326593875885
16120,-0.2334771603345871,0.0433853715658187,-1.3401230573654177
16130,-0.2715808451175689,0.129479244351387,-1.331183910369873
16140,-0.2733988165855407,0.2243912518024444,-1.2802904844284058
16150,-0.2171834856271743,0.360223650932312,-1.2367647886276243
16160,-0.1101744994521141,0.4838387966156006,-1.1989020109176636
16170,0.0173389837145805,0.5162287354469299,-1.1302584409713743
16180,0.1249908432364463,0.4641355872154236,-1.0728768110275269
16190,0.1787459403276443,0.2867788970470428,-1.0624401569366455
16200,0.1920390874147415,0.1011435985565185,-1.1402493715286257
16210,0.1538285911083221,0.0028873388655483,-1.224519968032837
16220,0.0479010418057441,-0.0234113074839115,-1.236811876296997
16230,-0.0827291458845138,0.0245088152587413,-1.17075777053833
16240,-0.1503441333770752,0.1106122732162475,-1.0825761556625366
16250,-0.0988191664218902,0.1868974566459655,-1.0139449834823608
16260,0.0575062558054924,0.1656894534826278,-0.947381317615509
16270,0.2452609837055206,0.0671932399272918,-0.904806673526764
16280,0.3826799094676971,-0.0922783985733985,-0.8803814053535461
16290,0.435144692659378,-0.2463526576757431,-0.8756564259529114
16300,0.409912645816803,-0.3802523612976074,-0.8693427443504333
16310,0.333283394575119,-0.4786407351493835,-0.8763463497161865
16320,0.2444947957992553,-0.4738381206989288,-0.9338080286979676
16330,0.1329011619091034,-0.353455513715744,-1.002084255218506
16340,-0.0142935514450073,-0.132731482386589,-1.059870362281799
16350,-0.1803874522447586,0.1317491829395294,-1.0520247220993042
16360,-0.3180858194828033,0.3632063269615173,-0.9944854378700256
16370,-0.3875168263912201,0.4903014302253723,-0.9406993985176086
16380,-0.3504199087619781,0.5460822582244873,-0.910481572151184
16390,-0.245502308011055,0.4958054721355438,-0.9157527685165404
16400,-0.1245008185505867,0.3451062738895416,-0.9653512835502625
16410,-0.0196761395782232,0.2345978766679763,-1.026455640792847
16420,0.0067863026633858,0.0921207666397094,-1.0439226627349854
16430,-0.0618886314332485,-0.0375994145870208,-1.072921633720398
16440,-0.1498250216245651,-0.1063762232661247,-1.0955419540405271
16450,-0.2208571135997772,-0.1330499053001403,-1.1260180473327637
16460,-0.2414498925209045,-0.0634795650839805,-1.1475274562835691
16470,-0.2101521641016006,-0.0282829664647579,-1.1540300846099854
16480,-0.1333562582731247,-0.0047218305990099,-1.1455767154693604
16490,-0.0341399200260639,0.0118209272623062,-1.152700424194336
16500,0.0502208434045314,0.0270003452897071,-1.162126541137695
16510,0.080466628074646,0.0485959202051162,-1.1333937644958496
16520,0.0360045582056045,0.0444229990243911,-1.0811517238616943
16530,-0.0542158856987953,0.0187671706080436,-1.0928010940551758
16540,-0.1369242966175079,-0.0060404324904084,-1.1219863891601562
16550,-0.1761902123689651,-0.0249885581433773,-1.1426557302474976
16560,-0.1610356867313385,0.0041536586359143,-1.166859745979309
16570,-0.1086912453174591,0.0583604387938976,-1.1862081289291382
16580,-0.0219383593648672,0.084232285618782,-1.1523370742797852
16590,0.0950721502304077,0.0308651980012655,-1.0921083688735962
16600,0.207748681306839,-0.0386705435812473,-1.0363688468933103
16610,0.2814718782901764,-0.1266941428184509,-0.9729827642440796
16620,0.2922161817550659,-0.2457331866025924,-0.9787511229515076
16630,0.2419069409370422,-0.2561666369438171,-1.1323354244232178
16640,0.1219377666711807,-0.1928342282772064,-1.3188811540603638
16650,-0.0162629820406436,-0.1469674110412597,-1.4072898626327517
16660,-0.1015348806977272,-0.0944824889302253,-1.3803551197052002
16670,-0.1155806556344032,-0.0377110913395881,-1.3196561336517334
16680,-0.0625010579824447,0.0364230088889598,-1.2771145105361938
16690,-0.0130514837801456,0.0929541885852813,-1.246180534362793
16700,0.0319719277322292,0.0950697287917137,-1.213357925415039
16710,0.0896408110857009,0.1196416467428207,-1.21402108669281
16720,0.1155575513839721,0.1368977427482605,-1.2357220649719238
16730,0.1106908917427063,0.1223835200071334,-1.2168967723846436
16740,0.0903738439083099,0.0996322855353355,-1.1853610277175903
16750,0.0848256796598434,0.0274339914321899,-1.184927225112915
16760,0.0979448482394218,-0.0945359840989112,-1.2160022258758545
16770,0.0803197771310806,-0.1716044098138809,-1.2726668119430542
16780,0.0038364282809197,-0.1970713138580322,-1.3059840202331543
16790,-0.118034616112709,-0.1814249753952026,-1.3071826696395874
16800,-0.2234020978212356,-0.1365373283624649,-1.2745290994644165
16810,-0.2715113162994385,-0.0839281752705574,-1.240827560424805
16820,-0.2294436395168304,-0.0487370416522026,-1.2147626876831057
16830,-0.0577216930687427,0.0546673759818077,-1.1616449356079102
16840,0.1321353167295456,0.0599616356194019,-1.127619743347168
16850,0.2609108686447143,-0.0174085218459367,-1.1177815198898315
16860,0.2922878563404083,-0.0936158969998359,-1.1461561918258667
16870,0.2558768391609192,-0.1709402352571487,-1.1541587114334106
16880,0.1963248401880264,-0.256287157535553,-1.101240634918213
16890,0.0915174707770347,-0.3762558996677398,-1.0209306478500366
16900,-0.0337249897420406,-0.4198940694332123,-0.9528509378433228
16910,-0.1543651223182678,-0.3763034641742706,-0.8762105107307434
16920,-0.2616384625434875,-0.3004862666130066,-0.8667645454406738
16930,-0.3348850011825561,-0.11380585283041,-0.9327989220619202
16940,-0.3465618789196014,0.1070036813616752,-0.916502833366394
16950,-0.3221827745437622,0.1958475410938263,-0.8025608658790588
16960,-0.2517741024494171,0.1834490150213241,-0.6407638192176819
16970,-0.1427043378353119,0.1152683570981025,-0.4902147948741913
16980,-0.0215594843029975,-0.0567311719059944,-0.3563408851623535
16990,0.0720783174037933,-0.2339493632316589,-0.275003969669342
17000,0.0773306787014007,-0.3589574098587036,-0.3583973944187164
17010,0.0113375512883067,-0.3626314997673034,-0.5820627212524414
17020,-0.0786789059638977,-0.2802387177944183,-0.7287182807922363
17030,-0.1924613863229751,-0.1487091779708862,-0.7405560612678528
17040,-0.2792704403400421,0.0041955532506108,-0.6716006398200989
17050,-0.2868740260601043,0.1357788890600204,-0.5572583675384521
17060,-0.2292977422475814,0.1791555732488632,-0.436793714761734
17070,-0.1357318460941314,0.1516411304473877,-0.3258059620857239
17080,-0.0414360649883747,0.0982375219464302,-0.1852210164070129
17090,0.0151318721473217,-0.0388902425765991,-0.0171531792730093
17100,0.0206901915371418,-0.2159959375858307,0.1432520747184753
17110,0.0040952363051474,-0.4049546718597412,0.1553537398576736
17120,0.0370616726577281,-0.4924220442771911,-0.0627193301916122
17130,0.121499054133892,-0.3199584186077118,-0.4049171507358551
17140,0.149422213435173,-0.0957492887973785,-0.5942736268043518
17150,0.0223058089613914,-0.0005069207400083,-0.5892871022224426
17160,-0.1558688879013061,0.036009058356285,-0.4911558926105499
17170,-0.2509171068668365,0.0359219759702682,-0.4018169343471527
17180,-0.255169928073883,0.0180552508682012,-0.359620064496994
17190,-0.2436030060052871,0.0227450784295797,-0.3109481334686279
17200,-0.2551306188106537,0.0151111772283911,-0.2296685576438903
17210,-0.2727091014385223,-0.0078087854199111,-0.1717764884233474
17220,-0.2761174738407135,-0.0477296076714992,-0.2137597054243087
17230,-0.2265880107879638,-0.0087846033275127,-0.3673050701618194
17240,-0.1309379339218139,0.0864393040537834,-0.5112761855125427
17250,-0.0390050746500492,0.1544092893600464,-0.5481039881706238
17260,0.0427485480904579,0.1378383636474609,-0.5070068836212158
17270,0.1621322035789489,0.044602695852518,-0.4648940861225128
17280,0.2880837023258209,-0.0554967708885669,-0.4450743496417999
17290,0.3188072443008423,-0.1857437193393707,-0.4289100170135498
17300,0.2120649814605713,-0.2966593503952026,-0.4582491517066955
17310,0.0332571566104888,-0.2800891697406769,-0.4909125566482544
17320,-0.1593271195888519,-0.1465053260326385,-0.476456880569458
17330,-0.2693334817886352,0.0123498365283012,-0.4227814078330993
17340,-0.2281542271375656,0.114939197897911,-0.366280049085617
17350,-0.0415934100747108,0.1198625862598419,-0.3043461143970489
17360,0.2025298923254013,0.0011913725174963,-0.2454663962125778
17370,0.3994472026824951,-0.1707452237606048,-0.2106130719184875
17380,0.4780856966972351,-0.3842608332633972,-0.1969957798719406
17390,0.4462662637233734,-0.5789446234703064,-0.2432338595390319
17400,0.3422022461891174,-0.6705991625785828,-0.32699716091156
17410,0.1948104202747345,-0.6581081748008728,-0.3591047525405884
17420,-0.0039821821264922,-0.5806675553321838,-0.3488686680793762
17430,-0.2186675816774368,-0.4230348169803619,-0.3363344967365265
17440,-0.3736094236373901,-0.2393922358751297,-0.3567578792572021
17450,-0.4047641456127167,-0.0645778253674507,-0.3483164608478546
17460,-0.3226231932640075,0.0503647290170192,-0.2736417353153229
17470,-0.1799611449241638,0.0378047302365303,-0.1698793619871139
17480,-0.0148219224065542,-0.0784104391932487,-0.0825411081314086
17490,0.1202408224344253,-0.2286686599254608,-0.005261761136353
17500,0.1791590452194214,-0.3943268656730652,0.0493147261440753
17510,0.1641542613506317,-0.5381234288215637,-0.040990937501192
17520,0.1421130746603012,-0.506794273853302,-0.2641231715679168
17530,0.106299415230751,-0.3401035666465759,-0.4187974333763122
17540,0.0001094569452106,-0.2187053710222244,-0.4093813300132751
17550,-0.1064292341470718,-0.1072986871004104,-0.3395306169986725
17560,-0.0893843546509742,0.0043414994142949,-0.2996997535228729
17570,0.0690185949206352,0.0393330380320549,-0.2692984342575073
17580,0.2562016248703003,0.0100043043494224,-0.2349554300308227
17590,0.3632609844207763,-0.0464421920478343,-0.195110023021698
17600,0.356865257024765,-0.1334718763828277,-0.1414967030286789
17610,0.2389029264450073,-0.2048358023166656,-0.1640432924032211
17620,0.0667730942368507,-0.1672686636447906,-0.2888708114624023
17630,-0.114236369729042,-0.0791971310973167,-0.3945602178573608
17640,-0.2781848609447479,0.0339138880372047,-0.4104583263397217
17650,-0.3765090107917785,0.1417303681373596,-0.3374078273773193
17660,-0.3627214133739471,0.217666894197464,-0.2604298591613769
17670,-0.2571515738964081,0.2694970667362213,-0.2009947597980499
17680,-0.1447846591472625,0.2496650069952011,-0.1554162055253982
17690,-0.063221089541912,0.209938645362854,-0.1338866800069809
17700,0.0095493104308843,0.1301360577344894,-0.1687542200088501
17710,0.0792221352458,0.0782747194170951,-0.2345090061426162
17720,0.1267286986112594,0.0670353025197982,-0.301329106092453
17730,0.1119497418403625,0.070557601749897,-0.3067877888679504
17740,0.0556129589676857,0.0556912198662757,-0.2667656242847442
17750,-0.0052698324434459,0.0378091596066951,-0.2071995139122009
17760,-0.0615105219185352,0.0192853473126888,-0.1782546490430832
17770,-0.1151258051395416,-0.0141799356788396,-0.1801106035709381
17780,-0.1520405709743499,0.0336147733032703,-0.2372722774744033
17790,-0.1464415490627288,0.1322864890098571,-0.2383077144622802
17800,-0.0976617634296417,0.1864523291587829,-0.1818781942129135
17810,0.0024661663919687,0.2127784788608551,-0.1899363845586776
17820,0.1505445539951324,0.3241126537322998,-0.2102366983890533
17830,0.2841526865959167,0.3890999257564544,-0.1754978895187378
17840,0.3352940082550049,0.3406520783901214,-0.1259064227342605
17850,0.3138310611248016,0.2523560225963592,-0.11503167450428
17860,0.2322459667921066,0.1454202532768249,-0.1524330377578735
17870,0.1067269220948219,0.0719577670097351,-0.1958886384963989
17880,-0.0600334703922271,0.0270583294332027,-0.1722190380096435
17890,-0.2066098600625991,-0.010778266005218,-0.1039478480815887
17900,-0.2704491913318634,-0.0032507150899618,-0.0528604686260223
17910,-0.2348358035087585,0.0611511766910553,-0.066039390861988
17920,-0.0900839641690254,0.1653838455677032,-0.1049660444259643
17930,0.1148396283388137,0.2787093222141266,-0.1161931380629539
17940,0.2816835343837738,0.2854531109333038,-0.0791305601596832
17950,0.3940348327159881,0.1850721687078476,-0.0027841227129101
17960,0.4327777624130249,0.0626832321286201,0.0684068724513053
17970,0.3982016742229461,-0.0927811935544014,0.0755731686949729
17980,0.3101193010807037,-0.1764595508575439,-0.0367604345083236
17990,0.2172482311725616,-0.1114749610424041,-0.1631695181131363
18000,0.1179354637861251,0.0030411435291171,-0.1999329626560211
18010,0.0438407324254512,0.1440270245075225,-0.1518727540969848
18020,0.0573264583945274,0.3236321210861206,-0.0646625757217407
18030,0.144260287284851,0.3738713264465332,0.0361196994781494
18040,0.2454461306333542,0.2833797335624695,0.0963016077876091
18050,0.3023376762866974,0.1597211509943008,0.1046905666589737
18060,0.2902525067329407,0.0287638679146766,0.1160512641072273
18070,0.2096244990825653,-0.0872199982404708,0.1480771154165268
18080,0.0988863408565521,-0.1390165984630584,0.1527965813875198
18090,0.0230666734278202,-0.1082831844687461,0.1576451361179351
18100,-0.0154072679579257,-0.063099019229412,0.1650280505418777
18110,0.0004348121583461,0.0047340872697532,0.1529367715120315
18120,0.034606397151947,0.0497788824141025,0.1726336479187011
18130,0.0278488919138908,0.0106703620404005,0.195561334490776
18140,-0.0268901605159044,-0.0734001025557518,0.1911040395498275
18150,-0.1037343442440033,-0.169363647699356,0.1838250905275344
18160,-0.1545467525720596,-0.241339236497879,0.1652827858924865
18170,-0.1666532158851623,-0.2308700829744339,0.1526186615228653
18180,-0.1482127904891967,-0.1990609765052795,0.1824105829000473
18190,-0.1016551554203033,-0.1680223643779754,0.2389138042926788
18200,-0.0327135808765888,-0.1437944322824478,0.2601564228534698
18210,0.0621945559978485,-0.0978184193372726,0.2374705374240875
18220,0.1683500260114669,-0.057520605623722,0.2418047487735748
18230,0.224968820810318,-0.082722894847393,0.2327470779418945
18240,0.2059954404830932,-0.0875886753201484,0.1965236961841583
18250,0.1387724578380584,-0.073057934641838,0.179233118891716
18260,0.0787320956587791,-0.0713537335395813,0.192730113863945
18270,0.0347388051450252,-0.0816282108426094,0.2241530120372772
18280,-0.0120905060321092,-0.1249972581863403,0.24997179210186
18290,-0.0625611394643783,-0.1924870908260345,0.232169359922409
18300,-0.0936040058732032,-0.2089519202709198,0.1430964022874832
18310,-0.0916255414485931,-0.1419766247272491,0.0443892702460289
18320,-0.1064658388495445,-0.0904911532998085,-0.0049644000828266
18330,-0.1552855819463729,-0.0617441982030868,0.0010396968573331
18340,-0.1893134862184524,-0.060852900147438,0.0349700078368186
18350,-0.1643857657909393,-0.0567750632762908,0.0796927362680435
18360,-0.112210988998413,-0.0721616670489311,0.1042769849300384
18370,-0.0733946114778518,-0.0752261653542518,0.1020284816622734
18380,-0.0675935447216034,-0.0415196418762207,0.0855639204382896
18390,-0.0730290561914444,-0.0035419003106653,0.0851007923483848
18400,-0.074013352394104,0.0497526675462722,0.0702384114265441
18410,-0.0803048014640808,0.0697338283061981,0.0536029711365699
18420,-0.0989397019147872,0.0487514287233352,0.0425757504999637
18430,-0.1068562194705009,0.0208244584500789,0.0540646277368068
18440,-0.0703244805335998,-0.0100945569574832,0.0859758108854293
18450,-0.0016823047772049,-0.0609553419053554,0.1027230992913246
18460,0.0402033813297748,-0.0989581122994422,0.0782763734459877
18470,0.042083840817213,-0.0867190212011337,0.0454537123441696
18480,-0.0003768447786569,-0.0525378920137882,0.0288757402449846
18490,-0.0523268617689609,-0.0117217544466257,0.0447702854871749
18500,-0.0934461876749992,0.0294342599809169,0.0766658261418342
18510,-0.1030391603708267,0.058537021279335,0.0682680830359458
18520,-0.0797509178519249,0.1153972595930099,0.0483597591519355
18530,-0.0432570874691009,0.1647717356681823,0.0520186759531497
18540,-0.0338237769901752,0.1538276076316833,0.0655320808291435
18550,-0.0405583791434764,0.1018533557653427,0.0583897419273853
18560,-0.0161623787134885,0.0546383783221244,0.0245255902409553
18570,0.0423435419797897,0.0056553920730948,-0.0141624175012111
18580,0.08637535572052,-0.0323761664330959,-0.0364694446325302
18590,0.1079722642898559,-0.0504614263772964,-0.0423947125673294
18600,0.1133727431297302,-0.0441996715962886,-0.0450003631412982
18610,0.1182785555720329,0.0017869947478175,-0.0535901226103305
18620,0.1126326397061348,0.0639589354395866,-0.0397833436727523
18630,0.0713331326842308,0.0826703086495399,-0.0124507891014218
18640,0.0109676048159599,0.0863022655248642,0.0139877498149871
18650,-0.0312112718820571,0.0790717750787735,0.0258763674646615
18660,-0.0725791752338409,0.0770270153880119,-0.0042686909437179
18670,-0.1171343922615051,0.0871374383568763,-0.0474161617457866
18680,-0.1572318971157074,0.1152019649744033,-0.0705659762024879
18690,-0.1802163124084472,0.1166533827781677,-0.0639900937676429
18700,-0.1648868918418884,0.1023658663034439,-0.0472224801778793
18710,-0.1057484671473503,0.057180281728506,-0.0217424221336841
18720,-0.0128526389598846,-0.0090727778151631,-0.0114607857540249
